timestamp_ms,ax,ay,az,gx,gy,gz,ir,red,emg_filtered,emg_envelope
53194,0.5020,-8.4410,3.1300,0.4950,-0.2630,0.3410,33931,30641,2,4
53214,0.6870,-9.5350,2.5380,0.2020,-0.2200,0.4220,33910,30627,-15,225
53234,0.5630,-8.9540,2.7690,-0.3390,-0.1730,0.4470,33885,30627,12,144
53254,-0.1340,-8.1100,3.0500,-0.9900,-0.2050,0.4530,33874,30626,19,361
53275,-0.5520,-7.4040,2.9420,-1.0370,-0.2380,0.3610,33870,30631,0,0
53295,-0.7310,-6.9010,2.9680,-0.8310,-0.2460,0.2830,33877,30631,12,144
53315,-0.7510,-6.8450,3.1300,-0.6740,-0.2770,0.2280,33881,30639,11,121
53335,-0.7820,-7.3690,3.3110,-0.4950,-0.2990,0.1640,33876,30643,8,64
53355,-0.9210,-7.4300,3.4450,-0.3890,-0.2850,0.0940,33886,30649,14,196
53375,-1.2090,-7.4870,3.3210,-0.2920,-0.2790,0.0500,33884,30647,7,49
53395,-1.4070,-7.4050,3.3270,-0.1770,-0.2330,0.0010,33887,30652,2,4
53415,-1.4620,-7.5670,3.3170,-0.1520,-0.2080,-0.0280,33898,30654,1,1
53435,-1.5510,-7.7340,3.3730,-0.1590,-0.1810,-0.0790,33906,30660,15,225
53455,-1.3260,-8.3710,3.6240,-0.1540,-0.1610,-0.1690,33922,30670,10,100
53476,-0.9640,-8.9210,3.7580,-0.1230,-0.1730,-0.2650,33923,30668,-5,25
53496,-0.4790,-9.8650,3.7760,-0.1040,-0.1760,-0.3740,33920,30655,-8,64
53516,0.1780,-10.8490,3.9600,-0.1670,-0.1320,-0.5190,33914,30653,8,64
53536,0.6640,-11.6330,4.0550,-0.2380,-0.1050,-0.6520,33912,30658,0,0
53556,1.3610,-12.5320,4.2820,-0.2480,-0.0360,-0.7500,33912,30658,5,25
53576,1.8900,-12.8960,4.0920,-0.0940,0.0530,-0.8050,33910,30660,-4,16
53596,2.2520,-13.2040,3.8150,-0.0370,0.1000,-0.7880,33917,30660,9,81
53616,2.3250,-12.7240,3.2510,-0.1500,0.1230,-0.6900,33922,30660,7,49
53636,2.1920,-11.2240,2.8930,-0.2750,0.0840,-0.5140,33916,30662,6,36
53656,1.9060,-9.2660,3.0080,-0.3200,-0.0500,-0.1480,33892,30655,-5,25
53677,1.8290,-8.2460,3.2970,-0.0840,-0.1420,0.0140,33893,30652,19,361
53697,1.6900,-7.8160,3.3330,0.2000,-0.1930,0.1120,33884,30647,2,4
53717,1.3790,-7.8570,3.1220,0.3320,-0.1830,0.1450,33872,30641,6,36
53737,1.0870,-8.2010,2.7920,0.2810,-0.1010,0.0910,33861,30632,2,4
53757,0.8100,-8.3670,2.7590,0.1040,0.0260,0.0090,33836,30622,2,4
53777,0.6390,-7.9380,3.0890,-0.1050,0.1490,-0.0460,33813,30619,10,100
53797,0.4840,-7.6280,3.3630,-0.2840,0.2240,-0.0050,33799,30611,6,36
53817,0.2230,-7.2360,3.2660,-0.3980,0.2760,0.0460,33798,30611,1,1
53837,-0.0510,-7.0090,3.0890,-0.4280,0.3040,0.1020,33800,30614,9,81
53857,-0.2300,-7.0760,3.2010,-0.3950,0.2970,0.1570,33800,30619,2,4
53878,-0.3260,-7.0350,3.4320,-0.2720,0.3050,0.1430,33795,30608,5,25
53898,-0.3900,-7.0020,3.6300,-0.1400,0.3260,0.1200,33782,30608,1,1
53918,-0.3650,-7.2860,3.7450,-0.0750,0.3150,0.1550,33776,30600,-20,400
53938,-0.2770,-7.6970,3.8070,-0.1880,0.2880,0.2180,33773,30602,8,64
53958,-0.3830,-7.9640,3.6630,-0.3610,0.2370,0.2460,33773,30604,-9,81
53978,-0.4350,-8.2290,3.6080,-0.4980,0.1750,0.2690,33769,30602,14,196
53998,-0.3900,-8.5290,3.6420,-0.5390,0.1100,0.2780,33773,30604,20,400
54018,-0.3120,-8.9650,3.7300,-0.4710,0.0450,0.2780,33771,30596,3,9
54038,-0.2300,-9.5330,3.9620,-0.3730,-0.0010,0.2910,33752,30584,-3,9
54058,-0.0140,-10.7430,3.7580,-0.3660,-0.0620,0.2770,33715,30565,-15,225
54079,-0.0440,-10.9770,3.5050,-0.4580,-0.0530,0.2350,33698,30553,16,256
54099,0.0710,-10.7270,3.4310,-0.6140,-0.0540,0.2060,33671,30532,10,100
54119,-0.3280,-10.6810,3.1500,-0.8100,-0.1180,0.1600,33644,30527,-1,1
54139,-0.3320,-11.2340,3.0290,-1.0780,-0.1800,0.1050,33628,30522,0,0
54159,-0.3320,-11.6080,2.8160,-1.2210,-0.2740,-0.0020,33631,30523,18,324
54179,-0.2500,-11.5270,2.4350,-1.1700,-0.3500,-0.0720,33636,30527,1,1
54199,-0.1710,-10.8540,1.9030,-1.0050,-0.4440,-0.0290,33633,30530,2,4
54219,-0.2120,-10.2160,1.4010,-0.8090,-0.5550,0.0630,33642,30535,4,16
54239,-0.2320,-9.5010,1.2330,-0.6170,-0.6670,0.1610,33649,30539,5,25
54259,-0.2480,-8.7280,1.1500,-0.2330,-0.8370,0.2230,33651,30537,0,0
54280,-0.3210,-8.7890,1.0410,-0.0670,-0.9080,0.2600,33654,30535,14,196
54300,-0.4070,-9.0370,0.9470,0.0290,-0.9090,0.2350,33645,30529,-2,4
54320,-0.1940,-9.7520,0.9680,0.1010,-0.8040,0.1470,33621,30499,0,0
54340,-0.2310,-9.5340,1.2510,0.2610,-0.6390,-0.0080,33554,30478,-2,4
54360,0.0080,-9.8670,1.5250,0.3780,-0.4260,-0.0580,33523,30477,2,4
54380,0.0170,-9.5190,1.4470,0.3950,-0.2150,-0.1240,33551,30505,-13,169
54400,0.2240,-9.1940,1.4450,0.2730,0.0010,-0.1350,33626,30546,7,49
54420,0.2360,-8.6140,1.6320,0.0880,0.2300,-0.1310,33672,30566,2,4
54440,0.0560,-7.8120,2.2240,-0.0590,0.3950,-0.1270,33729,30610,9,81
54460,0.0900,-7.3920,2.5690,-0.2400,0.4850,-0.0300,33868,30680,6,36
54481,-0.1200,-7.2630,2.2520,-0.2440,0.4750,-0.0230,33957,30720,-19,361
54501,-0.3470,-7.7050,1.9190,-0.0600,0.3980,-0.0340,34013,30741,16,256
54521,-0.6450,-8.0590,1.6800,0.1310,0.2810,-0.1150,34037,30751,13,169
54541,-0.7510,-8.3230,1.4760,0.1660,0.1180,-0.1300,34072,30762,12,144
54561,-0.9560,-8.4260,1.1740,0.2220,-0.0400,-0.1410,34107,30772,-12,144
54581,-1.2020,-8.6550,1.0590,0.3300,-0.1440,-0.1610,34118,30745,9,81
54601,-1.3950,-9.4950,0.9070,0.2280,-0.2820,-0.1160,34041,30659,3,9
54621,-1.2870,-9.3490,1.2440,0.0620,-0.4320,-0.2480,33791,30482,20,400
54641,-0.5470,-9.6850,1.7800,0.3460,-0.4670,-0.4440,33381,30465,0,0
54661,0.0440,-11.3890,1.9810,0.7220,-0.5380,-0.5640,32813,30912,-12,144
54682,0.4370,-12.3450,1.9230,0.6310,-0.5810,-0.6360,32884,31764,10,100
54702,0.5830,-12.6010,2.1450,0.4250,-0.5720,-0.7690,33314,33107,6,36
54722,1.2390,-12.7400,2.6530,0.2080,-0.4960,-0.8890,34066,35122,9,81
54742,1.8180,-12.6340,3.2010,0.1100,-0.4260,-0.9740,34889,36631,7,49
54762,2.4130,-12.3650,3.3220,0.1230,-0.3640,-0.8860,35557,38432,3,9
54782,2.4070,-12.1360,2.4860,0.1220,-0.3100,-0.6930,35916,39809,-18,324
54802,2.3680,-10.9970,2.2050,0.1290,-0.2340,-0.5110,36072,40769,13,169
54822,2.4650,-10.0600,2.1930,0.1150,-0.1800,-0.2660,35954,41110,10,100
54842,2.3100,-8.9880,2.0460,0.0410,-0.1250,-0.0310,35797,41194,4,16
54862,2.3950,-8.3790,2.4430,-0.0520,0.0470,0.1990,35700,41062,0,0
54883,2.6050,-8.4930,3.0120,-0.1770,0.2510,0.2250,35631,40807,-3,9
54903,2.6080,-8.4280,3.2310,-0.3360,0.4850,0.2160,35568,40449,5,25
54923,2.3750,-8.3030,3.3100,-0.4700,0.7280,0.2250,35611,39802,3,9
54943,2.0030,-7.8910,3.2060,-0.5590,0.9340,0.2760,35571,38530,6,36
54963,1.4560,-7.3890,2.8050,-0.5530,1.0350,0.3500,35372,37139,0,0
54983,0.4900,-6.7770,2.1540,-0.4650,1.0550,0.3980,35201,35590,-2,4
55003,0.0910,-7.0110,2.2130,-0.4450,1.0460,0.5200,34878,33648,11,121
55023,-0.2940,-7.3370,2.5200,-0.3890,0.9170,0.6090,34256,32169,23,529
55043,-0.6570,-7.2810,2.3180,-0.2560,0.6860,0.6850,33869,31435,7,49
55064,-1.0020,-7.8580,2.2570,-0.1810,0.6350,0.7380,33797,31208,20,400
55084,-1.1830,-7.8790,2.5460,-0.2230,0.6160,0.7230,33717,30954,6,36
55104,-1.5610,-7.7570,2.6530,-0.2260,0.5450,0.6720,33625,30786,3,9
55124,-1.7870,-8.1100,2.6610,-0.1940,0.4210,0.6600,33547,30689,10,100
55144,-1.6200,-8.5170,2.6680,-0.1320,0.3160,0.6060,33431,30675,10,100
55164,-1.6880,-9.1340,2.4610,0.0030,0.2170,0.5230,33287,30689,-5,25
55184,-1.5380,-9.8280,2.2690,0.0930,0.1710,0.3900,33174,30698,13,169
55204,-0.9210,-10.7850,2.6010,0.0980,0.1310,0.2410,33103,30695,8,64
55224,-0.1980,-11.6140,2.9100,-0.0660,0.0870,0.1660,33083,30669,0,0
55244,-0.1260,-12.0800,2.5370,-0.2760,-0.0000,0.0070,33108,30591,13,169
55265,0.0370,-11.9210,2.1720,-0.3440,-0.0910,-0.1590,33157,30506,11,121
55285,0.0100,-11.4180,1.8040,-0.3920,-0.2200,-0.3450,33221,30458,6,36
55305,0.1460,-10.2000,1.9240,-0.3390,-0.2920,-0.5330,33182,30494,21,441
55325,0.5080,-9.1760,2.3140,-0.2630,-0.4050,-0.6730,33178,30492,3,9
55345,0.9190,-9.2550,2.2540,-0.0700,-0.5430,-0.5940,33200,30480,-5,25
55365,0.7810,-10.2900,1.7730,0.2130,-0.6300,-0.4200,33181,30496,-8,64
55385,0.5770,-10.7100,1.4630,0.4190,-0.6410,-0.3660,33178,30495,10,100
55405,0.4630,-10.1960,1.4520,0.5190,-0.6540,-0.3070,33176,30488,10,100
55425,0.6200,-10.1630,1.3410,0.5270,-0.6360,-0.2560,33161,30488,-3,9
55445,1.0210,-9.9830,1.4700,0.4000,-0.5180,-0.2350,33145,30481,13,169
55466,0.7220,-8.9750,1.1710,0.3400,-0.4340,-0.2110,33139,30472,9,81
55486,0.4380,-7.9870,1.0670,0.2810,-0.3250,-0.2170,33149,30454,5,25
55506,0.3730,-7.5130,1.1660,0.2170,-0.2710,-0.1920,33174,30442,-10,100
55526,0.4790,-7.6810,1.2920,0.1940,-0.2430,-0.1040,33173,30448,0,0
55546,0.5520,-8.1180,1.6400,0.2350,-0.1990,-0.0670,33158,30469,8,64
55566,0.3080,-8.2890,1.7380,0.3890,-0.1710,-0.1020,33149,30480,8,64
55586,-0.0310,-8.2560,1.8950,0.4990,-0.1680,-0.1290,33160,30474,1,1
55606,-0.1380,-7.7970,2.2480,0.6060,-0.1840,-0.2000,33177,30461,6,36
55626,-0.1450,-8.0720,3.0590,0.6590,-0.2030,-0.1760,33192,30456,-20,400
55646,-0.3150,-8.8730,3.6430,0.7160,-0.1310,-0.0770,33198,30450,-1,1
55667,-0.6400,-8.7860,3.4120,0.7550,-0.0510,-0.1600,33220,30440,17,289
55687,-0.4570,-8.7880,3.5980,0.6620,-0.0480,-0.1040,33245,30436,1,1
55707,0.0680,-9.3790,3.9040,0.5100,-0.0560,-0.0590,33248,30429,0,0
55727,0.7650,-9.8040,4.3860,0.5170,-0.0230,-0.1250,33222,30421,1,1
55747,1.2950,-9.9770,4.4300,0.6090,-0.0060,-0.2630,33236,30416,0,0
55767,1.6960,-9.9290,4.5250,0.6120,-0.0200,-0.4100,33276,30394,5,25
55787,2.1670,-10.5680,4.7860,0.4750,-0.0430,-0.5370,33280,30375,3,9
55807,2.8100,-12.1580,5.1690,-0.1860,-0.0230,-0.4790,33299,30366,19,361
55827,3.3170,-10.9320,5.2500,-0.4320,-0.0040,-0.6090,33319,30355,9,81
55847,3.3420,-10.1410,4.3980,-0.0010,0.0620,-0.5650,33367,30336,3,9
55868,3.2790,-9.4450,4.2940,0.1040,0.0840,-0.4910,33387,30329,5,25
55888,3.0630,-8.9080,4.3040,0.0600,0.0980,-0.3650,33391,30325,9,81
55908,3.2860,-8.8190,4.7130,0.0360,0.1870,-0.1680,33382,30316,-4,16
55928,3.1380,-9.0520,4.5680,-0.0830,0.2880,-0.0520,33368,30307,13,169
55948,2.6790,-8.7110,4.0920,-0.1980,0.4430,-0.0270,33367,30307,2,4
55968,2.5700,-8.2770,3.5630,-0.2310,0.5530,-0.0310,33375,30311,-10,100
55988,2.3970,-7.8780,3.0560,-0.1990,0.6080,-0.0860,33393,30314,9,81
56008,2.0870,-7.7260,2.5330,-0.2080,0.6140,-0.0930,33404,30311,-9,81
56028,1.5950,-7.1620,2.4370,-0.1470,0.6190,-0.1140,33396,30306,13,169
56048,1.0240,-6.6390,2.8470,-0.1080,0.5980,-0.0940,33365,30293,0,0
56069,0.8380,-6.9360,3.1880,-0.0530,0.5650,-0.0400,33352,30288,-16,256
56089,0.4900,-7.2230,3.4800,-0.0970,0.5200,-0.0080,33336,30282,11,121
56109,0.0790,-6.9740,3.6540,-0.1160,0.4960,-0.0130,33335,30283,8,64
56129,-0.1240,-6.9180,3.8320,-0.1630,0.4860,-0.0000,33342,30286,4,16
56149,0.1340,-7.2510,4.2650,-0.2130,0.4640,0.0630,33347,30289,0,0
56169,0.1680,-7.3670,4.3550,-0.2920,0.4470,0.1280,33351,30287,8,64
56189,0.3330,-7.8490,4.4090,-0.4780,0.3910,0.2890,33328,30274,-12,144
56209,0.3400,-8.1250,4.0920,-0.5270,0.3470,0.3400,33284,30252,14,196
56229,0.2180,-8.6720,3.5160,-0.2970,0.3580,0.2960,33219,30238,5,25
56249,0.0200,-9.5840,3.1380,-0.1310,0.2760,0.3360,33157,30237,0,0
56270,-0.0550,-9.8640,3.2850,-0.2500,0.1810,0.3350,33118,30233,1,1
56290,0.0370,-10.3750,3.6640,-0.3540,0.0850,0.3520,33091,30230,7,49
56310,0.0470,-10.3310,3.7110,-0.4570,0.0270,0.3170,33070,30231,3,9
56330,-0.1780,-10.3680,3.8810,-0.5680,-0.0590,0.2670,33051,30243,5,25
56350,-0.0340,-10.7690,4.3160,-0.6060,-0.1190,0.1560,33010,30247,2,4
56370,0.2540,-11.6360,4.2920,-0.6770,-0.1720,0.0270,32939,30253,2,4
56390,0.5550,-12.0840,4.0080,-0.8630,-0.2070,-0.0140,32927,30256,-4,16
56410,0.7860,-11.5400,3.5350,-0.9420,-0.2540,0.0410,32922,30256,6,36
56430,0.8210,-10.6150,3.0240,-0.7920,-0.3250,0.1430,32934,30264,0,0
56450,0.8140,-9.6860,2.5040,-0.4710,-0.4170,0.3400,32970,30280,3,9
56471,0.8270,-9.4820,2.3480,-0.4340,-0.5040,0.4270,33009,30291,13,169
56491,0.8000,-9.1330,2.2190,-0.5030,-0.5730,0.4710,33037,30297,2,4
56511,0.7240,-9.1640,1.9620,-0.5720,-0.6090,0.4520,33061,30308,1,1
56531,0.9270,-8.9590,1.8700,-0.5940,-0.5980,0.3610,33079,30315,-8,64
56551,0.9880,-8.4060,1.8240,-0.4780,-0.5680,0.2400,33093,30321,3,9
56571,0.8640,-8.2540,1.7010,-0.3770,-0.5410,0.2180,33111,30326,0,0
56591,0.7050,-8.2980,1.6650,-0.3790,-0.4850,0.1850,33117,30331,3,9
56611,0.2750,-7.8970,1.7080,-0.3570,-0.4420,0.1470,33144,30330,13,169
56631,-0.0350,-7.6890,1.6230,-0.3140,-0.4300,0.1500,33178,30338,11,121
56651,-0.4080,-7.5070,1.6990,-0.1620,-0.4500,0.0750,33241,30349,9,81
56672,-0.5820,-7.7270,2.0280,0.0220,-0.4500,0.0020,33260,30352,-1,1
56692,-0.4540,-8.2300,2.3310,0.0940,-0.4490,-0.0180,33318,30364,-3,9
56712,-0.3480,-8.3310,2.5860,0.1210,-0.4690,-0.0070,33361,30368,-14,196
56732,-0.4500,-8.2700,2.5690,0.1560,-0.4790,0.0420,33370,30364,8,64
56752,-0.6240,-8.4360,2.2980,0.2490,-0.5060,0.0540,33364,30368,5,25
56772,-0.6690,-8.8170,2.1370,0.3340,-0.5160,0.0390,33368,30369,8,64
56792,-0.4560,-9.5380,2.0660,0.4170,-0.5440,0.0350,33376,30372,15,225
56812,-0.2560,-10.6790,1.9810,0.4910,-0.5520,-0.0630,33369,30369,5,25
56832,0.1230,-11.2930,2.1310,0.4790,-0.5370,-0.2150,33377,30371,9,81
56852,0.8940,-12.0670,2.4910,0.2040,-0.4830,-0.4200,33366,30365,2,4
56873,1.3550,-12.3530,2.9020,-0.0790,-0.3750,-0.6410,33335,30356,6,36
56893,2.0670,-12.9650,3.3550,-0.2880,-0.2240,-0.8050,33302,30350,0,0
56913,2.6800,-13.2910,3.6000,-0.3550,-0.0600,-0.8850,33294,30347,-2,4
56933,2.8800,-12.7950,3.2240,-0.3420,0.0640,-0.8230,33300,30349,8,64
56953,2.8570,-10.7250,2.9470,-0.2770,0.1320,-0.6330,33304,30345,0,0
56973,2.7450,-8.9970,2.9340,-0.1790,0.1190,-0.4110,33321,30346,-5,25
56993,2.5640,-7.4600,3.1280,-0.0240,0.1210,-0.1680,33333,30350,-9,81
57013,2.4350,-6.7470,3.5090,0.1930,0.1730,0.0420,33355,30349,8,64
57033,2.0870,-6.6490,3.5820,0.3790,0.3070,0.1730,33365,30351,4,16
57053,1.8060,-7.8850,3.0860,0.3770,0.6200,0.1660,33375,30356,8,64
57074,1.7000,-8.6900,2.4670,0.0820,0.8320,0.0900,33396,30357,-21,441
57094,1.5360,-8.5430,1.9860,-0.3060,0.9950,0.0740,33446,30374,3,9
57114,1.3750,-7.9740,1.7810,-0.6110,1.0980,0.1700,33501,30373,-2,4
57134,1.1520,-7.3940,1.7020,-0.7370,1.1270,0.2920,33513,30366,4,16
57154,0.9480,-7.0040,1.7450,-0.6370,1.1280,0.3590,33512,30364,-1,1
57174,0.7370,-6.9790,1.7500,-0.4430,1.0970,0.3820,33511,30359,13,169
57194,0.2740,-7.0860,1.8570,-0.2640,1.0380,0.3640,33505,30363,8,64
57214,-0.0500,-7.5880,2.0280,-0.2150,0.9540,0.3670,33486,30347,10,100
57234,-0.4200,-8.1020,2.0250,-0.3290,0.8690,0.3630,33449,30347,-11,121
57254,-0.7400,-8.5210,2.3820,-0.4550,0.7690,0.2690,33397,30326,0,0
57275,-0.7700,-8.5830,2.6870,-0.4460,0.6920,0.2150,33360,30320,12,144
57295,-0.7310,-8.7940,2.9530,-0.3390,0.6060,0.1890,33339,30314,-8,64
57315,-0.8220,-8.9030,2.8810,-0.2000,0.5200,0.1640,33318,30310,3,9
57335,-1.0200,-9.5970,2.5740,-0.2100,0.3840,0.1610,33318,30304,0,0
57355,-1.0650,-10.1740,2.5500,-0.3320,0.2230,0.1270,33316,30304,7,49
57375,-0.8030,-10.8160,2.7830,-0.4340,0.0490,0.0940,33311,30304,6,36
57395,-0.7860,-11.2970,2.7320,-0.5230,-0.1110,0.0350,33299,30299,19,361
57415,-0.6540,-12.5180,2.5190,-0.5370,-0.2660,-0.0720,33284,30291,-5,25
57435,-0.1650,-14.1010,2.4590,-0.4720,-0.3930,-0.1870,33275,30293,2,4
57455,0.3210,-13.7270,2.3980,-0.3300,-0.5330,-0.2190,33280,30295,17,289
57476,0.1950,-11.5810,2.1150,-0.2080,-0.6570,-0.1280,33295,30290,15,225
57496,0.0950,-10.2060,1.8320,-0.0080,-0.8150,-0.0030,33318,30294,17,289
57516,0.0450,-9.5960,1.5560,0.2890,-0.9480,0.1020,33327,30290,9,81
57536,-0.0240,-9.2390,1.4890,0.6140,-1.0400,0.1340,33337,30291,3,9
57556,0.0040,-9.2680,1.5310,0.8160,-1.1040,0.1710,33351,30292,10,100
57576,0.0500,-9.3410,1.4760,0.8480,-1.1190,0.1890,33354,30295,6,36
57596,0.1840,-9.2990,1.4650,0.7630,-1.0930,0.2090,33368,30298,3,9
57616,0.3520,-9.1630,1.3750,0.6480,-1.0410,0.2090,33377,30302,1,1
57636,0.4530,-8.5220,1.2400,0.5250,-0.9240,0.1960,33412,30308,5,25
57658,0.3350,-7.8250,1.0830,0.4640,-0.8540,0.1920,33432,30310,-10,100
57678,0.1340,-7.5250,1.0040,0.3670,-0.8080,0.1880,33447,30313,1,1
57698,0.0220,-7.4900,1.1420,0.2590,-0.7790,0.1780,33458,30316,14,196
57718,-0.0980,-7.3260,1.3720,0.1770,-0.7620,0.1570,33460,30319,-6,36
57738,-0.2450,-7.2280,1.6530,0.1230,-0.7450,0.1390,33456,30319,-3,9
57758,-0.3120,-7.3740,1.9660,0.0710,-0.7090,0.0940,33444,30320,-2,4
57778,-0.3290,-7.5920,2.3580,0.0010,-0.6640,0.0400,33429,30318,7,49
57798,-0.3650,-7.8240,2.6170,-0.0660,-0.6150,0.0030,33416,30316,0,0
57818,-0.5330,-8.3770,2.5770,-0.0870,-0.5650,-0.0420,33400,30320,-2,4
57839,-0.4920,-8.9030,2.7290,-0.0330,-0.5500,-0.0910,33397,30323,-1,1
57859,-0.2300,-9.9420,2.9750,0.0420,-0.5480,-0.1490,33403,30328,-9,81
57879,0.1940,-10.7930,3.3990,0.1760,-0.4880,-0.2420,33406,30333,6,36
57899,0.6440,-11.7450,3.6060,0.2620,-0.3940,-0.3240,33409,30334,0,0
57919,0.9680,-12.4060,3.7310,0.2040,-0.2570,-0.4110,33408,30331,3,9
57939,1.5040,-13.0350,3.9760,0.0670,-0.0930,-0.4870,33389,30321,16,256
57959,2.1970,-13.2120,4.1240,-0.0030,0.0890,-0.5440,33381,30316,5,25
57979,2.6970,-12.9990,3.9340,-0.0220,0.2480,-0.5680,33377,30313,7,49
57999,2.9130,-11.7560,3.4200,-0.0740,0.3500,-0.4990,33374,30313,3,9
58019,2.8400,-9.4700,3.0680,-0.2980,0.3690,-0.2380,33349,30290,19,361
58040,2.6740,-8.1370,3.2350,-0.4350,0.3470,-0.0080,33333,30291,7,49
58060,2.5060,-7.2640,3.4850,-0.2580,0.3440,0.1370,33314,30286,0,0
58080,2.3680,-7.0500,3.5130,0.1200,0.3810,0.2000,33306,30286,17,289
58100,2.2980,-7.2680,3.3890,0.4100,0.4610,0.1930,33303,30288,3,9
58120,2.1450,-7.6580,2.9400,0.3740,0.5540,0.1390,33298,30283,12,144
58140,1.8520,-7.5930,2.8470,0.1070,0.6420,0.0820,33300,30285,1,1
58160,1.5530,-7.2010,3.0100,-0.1240,0.7280,0.0520,33302,30282,3,9
58180,1.2650,-6.8490,3.0380,-0.2290,0.8320,0.0710,33321,30284,8,64
58200,0.9120,-6.4700,2.8590,-0.2210,0.9290,0.0680,33360,30295,20,400
58220,0.3400,-6.0720,2.7750,-0.1760,0.9960,0.0460,33420,30296,10,100
58241,0.0380,-6.2740,2.8650,-0.0740,1.0180,0.0150,33423,30297,8,64
58261,-0.0400,-7.5030,3.1790,-0.0820,0.9790,0.1740,33422,30298,2,4
58281,-0.3020,-8.2960,3.4490,-0.1890,0.9770,0.2580,33397,30291,8,64
58301,-0.5520,-8.8620,3.5100,-0.3190,0.9810,0.2590,33355,30287,12,144
58321,-0.6360,-9.1950,3.5150,-0.4690,0.9810,0.2670,33358,30286,10,100
58341,-0.6370,-9.1340,3.4490,-0.5760,0.9540,0.2900,33369,30290,4,16
58361,-0.6220,-9.2360,3.3400,-0.6100,0.9050,0.3720,33397,30292,6,36
58381,-0.7420,-9.4580,3.2140,-0.5740,0.8220,0.4320,33404,30286,27,729
58401,-0.7400,-10.1730,3.1580,-0.5050,0.7180,0.4050,33400,30289,1,1
58421,-0.7580,-11.3780,3.2470,-0.5640,0.5250,0.2960,33397,30280,-11,121
58442,-0.9270,-11.7840,3.2610,-0.6410,0.3850,0.1630,33387,30280,8,64
58462,-0.7390,-12.2970,3.3460,-0.6270,0.2420,-0.0460,33367,30271,6,36
58482,-0.1810,-13.2330,3.4240,-0.5300,0.1090,-0.2290,33346,30272,7,49
58502,0.1010,-13.0940,3.2870,-0.4490,0.0080,-0.3070,33347,30273,12,144
58522,0.0490,-11.4730,2.7810,-0.3870,-0.1080,-0.2080,33357,30275,-3,9
58542,-0.2230,-9.6870,2.2700,-0.3080,-0.2600,-0.0500,33375,30274,0,0
58562,-0.5090,-8.6430,1.7960,-0.1620,-0.4390,0.0710,33395,30278,-2,4
58582,-0.7050,-8.2880,1.4780,0.1240,-0.6010,0.1210,33411,30281,3,9
58602,-0.7650,-8.5280,1.2650,0.4430,-0.7330,0.1350,33412,30282,-15,225
58622,-0.5550,-9.1690,1.0850,0.8280,-0.8390,0.0640,33410,30284,-24,576
58643,-0.3330,-9.5640,0.8680,0.8650,-0.8530,0.0060,33411,30287,6,36
58663,-0.1600,-9.6230,0.5790,0.7010,-0.8580,-0.0200,33407,30282,-3,9
58683,-0.1040,-8.9520,0.6070,0.4180,-0.8540,-0.0500,33389,30280,-1,1
58703,-0.2010,-8.1990,0.5710,0.2200,-0.8780,-0.0310,33359,30265,6,36
58723,-0.2420,-7.8400,0.6720,0.1390,-0.8970,-0.0380,33316,30256,3,9
58743,-0.2840,-7.7800,0.9940,0.1810,-0.9170,-0.0650,33271,30244,9,81
58763,-0.3560,-7.8540,1.3770,0.2310,-0.9290,-0.0730,33249,30245,16,256
58783,-0.5260,-7.6950,1.8760,0.2010,-0.9170,-0.0750,33241,30243,-3,9
58803,-0.5990,-7.5390,2.3100,0.0820,-0.8840,-0.0750,33229,30246,11,121
58823,-0.7020,-7.5210,3.0920,-0.0560,-0.7790,-0.0970,33230,30250,7,49
58844,-0.8810,-7.5020,3.5280,0.0300,-0.6860,-0.1100,33242,30257,5,25
58864,-0.8890,-8.2310,3.3050,0.0370,-0.6120,-0.0400,33231,30254,0,0
58884,-0.9010,-8.7470,3.2190,-0.0020,-0.5350,-0.0760,33210,30257,6,36
58904,-0.7610,-9.3790,3.4130,0.0010,-0.4600,-0.1220,33204,30255,3,9
58924,-0.4200,-10.2460,3.6820,0.0090,-0.3810,-0.1800,33197,30258,-9,81
58944,-0.0450,-11.0100,3.8690,-0.0190,-0.2630,-0.2970,33190,30259,13,169
58964,0.3680,-11.7260,4.2170,-0.0470,-0.1330,-0.4010,33199,30259,9,81
58984,0.8980,-12.4200,4.6400,0.0180,0.0090,-0.5090,33204,30258,-12,144
59004,1.6960,-13.1900,4.6710,0.1290,0.1750,-0.5760,33223,30263,9,81
59024,2.3910,-12.9180,3.9910,0.1030,0.3560,-0.6530,33244,30263,11,121
59045,2.6200,-11.8910,3.5180,-0.1190,0.3930,-0.5870,33265,30264,7,49
59065,2.6290,-10.3640,3.1580,-0.3270,0.3900,-0.4270,33284,30265,3,9
59085,2.6020,-8.6730,3.0920,-0.3830,0.3720,-0.2090,33289,30263,-20,400
59105,2.4250,-7.4810,3.0510,-0.1590,0.3730,0.0450,33296,30264,10,100
59125,2.2690,-6.9470,2.9690,0.1550,0.3940,0.2110,33310,30277,7,49
59145,2.1700,-7.0260,2.9870,0.3470,0.4750,0.2860,33325,30280,-1,1
59165,2.1700,-7.5090,2.7260,0.3040,0.5840,0.2630,33348,30289,7,49
59185,2.0720,-7.9270,2.5690,0.0880,0.7100,0.1840,33361,30289,-14,196
59205,1.9500,-8.0860,2.4270,-0.1920,0.8420,0.1270,33368,30296,4,16
59225,1.6330,-7.4140,2.1610,-0.5730,0.9930,0.1490,33409,30297,8,64
59246,1.1740,-6.7860,1.9810,-0.6120,1.0390,0.2200,33431,30298,-3,9
59266,0.8090,-6.5100,1.9600,-0.4820,1.0630,0.2260,33437,30297,7,49
59286,0.4820,-6.4720,2.0230,-0.3020,1.0710,0.1820,33421,30286,2,4
59306,0.0500,-6.6860,2.1680,-0.2370,1.0640,0.1180,33338,30260,20,400
59326,-0.3460,-6.8020,2.6290,-0.2890,1.0840,0.0730,33186,30219,3,9
59346,-0.5340,-7.4720,3.1240,-0.4100,1.0770,0.0340,32944,30225,-4,16
59366,-0.6680,-8.2300,3.4370,-0.5700,1.0800,-0.0170,32827,30242,6,36
59386,-0.7520,-8.6800,3.5940,-0.6810,1.0790,-0.0760,32753,30313,2,4
59406,-1.0940,-9.2840,3.2320,-0.7570,1.0160,-0.0880,32733,30391,8,64
59426,-1.5790,-9.7980,2.9130,-0.8130,0.7660,-0.0540,32827,30625,0,0
59447,-1.6170,-9.8690,3.0800,-0.7760,0.5310,-0.0180,32942,30669,14,196
59467,-1.5390,-10.1730,3.2010,-0.6090,0.2820,-0.0100,32981,30657,-4,16
59487,-1.3610,-10.9610,3.2260,-0.3950,0.0220,-0.0470,32997,30655,-6,36
59507,-1.2700,-12.1820,3.0620,-0.2930,-0.1930,-0.1030,32985,30649,0,0
59527,-0.7540,-14.0740,3.2390,-0.2860,-0.3620,-0.1310,32970,30644,-10,100
59547,-0.3830,-14.8150,3.0970,-0.3300,-0.4320,-0.1800,32992,30596,-6,36
59567,-0.2500,-14.1220,2.4360,-0.4460,-0.4950,-0.1780,33038,30524,13,169
59587,-0.1020,-12.6290,1.8720,-0.5040,-0.5600,-0.1370,33086,30452,10,100
59607,-0.0310,-11.1220,1.5890,-0.4840,-0.6310,-0.0420,33122,30401,6,36
59627,-0.1210,-8.9750,1.2110,-0.2890,-0.7660,0.1890,33162,30358,2,4
59648,-0.2620,-8.2900,0.8210,-0.1400,-0.8840,0.3160,33165,30352,0,0
59668,-0.2840,-8.0430,0.8440,-0.0260,-0.9400,0.3570,33174,30351,8,64
59688,-0.2210,-7.9180,0.8400,0.1260,-0.9940,0.3350,33182,30344,20,400
59708,-0.2040,-8.1190,0.7830,0.3360,-0.9910,0.2680,33183,30340,16,256
59728,-0.2590,-8.4660,0.6400,0.5450,-0.9620,0.1590,33197,30324,3,9
59748,-0.1810,-9.0880,0.7040,0.6280,-0.8900,0.1000,33217,30317,4,16
59768,-0.1360,-9.4320,0.6150,0.4630,-0.7860,0.0260,33210,30319,0,0
59788,-0.2410,-8.5690,0.5940,0.1680,-0.7150,-0.0940,33223,30302,9,81
59808,-0.2750,-8.2360,0.5120,-0.0480,-0.7040,-0.0830,33255,30294,21,441
59828,-0.2740,-8.1950,1.2110,0.0730,-0.6950,0.0170,33282,30289,10,100
59849,-0.1470,-8.2470,1.4890,0.2430,-0.6810,0.0700,33232,30287,27,729
59869,-0.2150,-7.8120,1.5020,0.2930,-0.6840,0.0530,33158,30281,4,16
59889,-0.3030,-7.5070,1.5570,0.2790,-0.6780,0.0050,33089,30283,0,0
59909,-0.4120,-7.5730,1.7410,0.1600,-0.6750,-0.0330,33012,30280,-16,256
59929,-0.4970,-7.8940,1.9540,0.0260,-0.6700,-0.0490,32930,30315,4,16
59949,-0.5970,-8.4720,2.1980,0.0020,-0.6560,-0.0600,32902,30455,2,4
59969,-0.5930,-9.2500,2.3130,-0.0210,-0.6410,-0.1100,32927,30504,8,64
59989,-0.4300,-9.9480,2.4030,-0.1090,-0.6260,-0.2020,32967,30533,1,1
60009,-0.0420,-11.2490,2.5570,-0.2060,-0.5160,-0.4050,32980,30617,6,36
60031,0.4130,-12.3740,2.6980,-0.2990,-0.3690,-0.4760,32921,30806,2,4
60051,1.0930,-13.0280,3.4510,-0.4150,-0.1530,-0.5320,32851,31500,5,25
60071,2.3630,-13.7440,3.9590,-0.2950,0.1340,-0.6330,33173,31858,4,16
60091,3.1830,-14.2970,3.8370,-0.0880,0.4300,-0.6950,33333,31904,3,9
60111,3.4860,-13.7460,2.8160,0.1000,0.6650,-0.6910,33411,31758,12,144
60131,3.7520,-11.9210,2.4040,0.1620,0.7920,-0.5290,33415,31641,11,121
60151,3.8310,-9.8520,2.1940,0.1200,0.7780,-0.3150,33399,31433,5,25
60171,3.8590,-8.0780,2.2790,-0.0780,0.7050,-0.0560,33375,31150,3,9
60191,3.5480,-6.5840,2.7370,-0.2240,0.5390,0.1930,33324,30834,0,0
60212,2.9780,-6.5330,2.7330,-0.1810,0.4970,0.2350,33314,30726,13,169
60232,2.3030,-7.0260,2.2330,-0.0870,0.5500,0.1440,33308,30679,0,0
60252,1.5330,-7.5870,1.7120,-0.0800,0.6540,-0.0020,33297,30633,5,25
60272,1.2260,-7.5410,1.6280,-0.2020,0.7180,0.0060,33278,30626,1,1
60292,0.4110,-7.2150,1.2170,-0.2870,0.6820,0.1370,33248,30657,7,49
60312,-0.2170,-7.1230,0.9300,-0.2800,0.6720,0.2860,33199,30751,4,16
60332,-0.7700,-7.0940,1.0610,-0.1470,0.6780,0.3520,33156,30970,-21,441
60352,-1.0380,-7.2720,1.4220,-0.0380,0.7200,0.3670,33150,31186,10,100
60372,-1.0470,-7.6350,2.0770,-0.0780,0.7880,0.3700,33151,31317,-7,49
60392,-1.2280,-8.2500,2.4650,-0.2670,0.8470,0.4130,33181,31481,4,16
60413,-1.3220,-8.9760,2.3010,-0.3830,0.9080,0.4290,33216,31613,-4,16
60433,-0.9470,-9.3390,2.9580,-0.3700,0.9680,0.4290,33258,31722,12,144
60453,-0.7120,-9.7180,3.1040,-0.3700,0.9480,0.5080,33276,31727,11,121
60473,-0.7520,-9.6130,2.8190,-0.4410,0.8960,0.5920,33277,31664,3,9
60493,-0.6260,-9.3920,2.8720,-0.5040,0.8020,0.6810,33266,31565,-22,484
60513,-0.7670,-9.1420,3.0560,-0.3050,0.7140,0.6220,33260,31495,10,100
60533,-0.4030,-9.5340,3.1530,-0.2440,0.6470,0.5190,33254,31401,-14,196
60553,-0.2960,-10.1410,2.8430,-0.2650,0.5110,0.4090,33242,31379,6,36
60573,-0.4330,-10.9790,2.3210,-0.3930,0.3840,0.2680,33251,31445,3,9
60593,-0.4580,-13.0880,1.8060,-0.6780,0.1800,-0.0270,33275,31495,-15,225
60614,-0.2810,-14.0050,1.6100,-0.7740,0.0480,-0.2620,33288,31441,-6,36
60634,-0.2600,-13.5920,1.3000,-0.6650,-0.0720,-0.3740,33273,31333,-6,36
60654,-0.2290,-11.8470,1.0130,-0.5180,-0.2380,-0.3510,33247,31114,9,81
60674,-0.3650,-10.2120,0.9290,-0.3700,-0.4200,-0.2770,33209,30948,0,0
60694,-0.3470,-9.2000,0.9650,-0.1970,-0.5850,-0.1870,33189,30830,10,100
60714,-0.4780,-8.6360,0.9420,0.0140,-0.7430,-0.1270,33182,30770,2,4
60734,-0.6370,-8.4400,0.7310,0.2410,-0.8800,-0.0930,33174,30747,7,49
60754,-0.7520,-8.5050,0.6120,0.4460,-0.9690,-0.1080,33174,30724,-10,100
60774,-0.8200,-8.6730,0.5280,0.5560,-0.9970,-0.1180,33174,30692,-19,361
60794,-0.8430,-8.8180,0.5080,0.5420,-0.9510,-0.1270,33177,30630,-6,36
60815,-0.7900,-9.0020,0.5080,0.4310,-0.8880,-0.1160,33176,30595,-15,225
60835,-0.6670,-8.8500,0.6730,0.3360,-0.8110,-0.0780,33182,30576,0,0
60855,-0.7390,-8.4790,0.7120,0.2360,-0.7460,-0.0230,33181,30561,5,25
60875,-0.7490,-8.1070,0.8550,0.1880,-0.6870,0.0110,33190,30557,4,16
60895,-0.7950,-7.7010,1.0640,0.1690,-0.6390,0.0120,33195,30548,9,81
60915,-0.8500,-7.6790,1.2440,0.1360,-0.6060,0.0020,33196,30552,-4,16
60935,-0.7570,-7.9680,1.5140,0.1200,-0.5680,-0.0300,33202,30563,-2,4
60955,-0.6220,-8.2360,1.7350,0.1210,-0.5180,-0.0590,33198,30581,23,529
60975,-0.6280,-8.4650,1.8300,0.0830,-0.4600,-0.0710,33201,30596,25,625
60995,-0.6960,-8.8410,1.9390,0.0140,-0.3910,-0.0800,33195,30601,12,144
61016,-0.6510,-9.4390,1.9660,0.0410,-0.3520,-0.0760,33196,30604,2,4
61036,-0.5020,-10.3450,2.0880,0.1190,-0.3040,-0.1000,33200,30617,4,16
61056,-0.1560,-11.2300,2.2610,0.1910,-0.2190,-0.1770,33204,30664,0,0
61076,0.4510,-11.8050,2.3090,0.1790,-0.1090,-0.2610,33203,30691,14,196
61096,0.8790,-12.1850,2.3520,0.0730,-0.0090,-0.2620,33197,30706,7,49
61116,1.2840,-12.7440,2.5080,-0.0700,0.1200,-0.2810,33189,30732,12,144
61136,1.6140,-13.1230,2.4540,-0.1060,0.2970,-0.3090,33195,30736,5,25
61156,1.8180,-13.0570,2.2160,-0.1630,0.4430,-0.3410,33208,30714,-1,1
61176,2.0900,-12.2040,1.9820,-0.3120,0.5810,-0.2960,33209,30691,8,64
61196,2.2180,-9.6260,2.0420,-0.4860,0.6480,-0.1460,33194,30660,-1,1
61217,2.0770,-8.4440,2.1320,-0.4270,0.6030,-0.0040,33175,30647,13,169
61237,2.0100,-7.9850,2.2830,-0.2200,0.5380,0.0900,33169,30663,14,196
61257,1.8600,-7.9580,2.3650,0.0040,0.4740,0.1340,33162,30694,4,16
61277,1.6300,-8.5620,2.3040,0.1200,0.4660,0.1220,33152,30743,23,529
61297,1.4200,-8.9870,2.1970,0.0550,0.5340,0.0560,33143,30752,6,36
61317,1.1910,-8.5600,2.0880,-0.0720,0.6020,0.0180,33136,30734,-9,81
61337,0.8120,-7.8350,1.9260,-0.1630,0.6550,0.0540,33132,30690,11,121
61357,0.5170,-7.3870,1.7560,-0.2200,0.6860,0.1300,33136,30652,7,49
61377,0.2110,-6.9120,1.6770,-0.2040,0.7020,0.1610,33145,30616,1,1
61397,-0.2370,-6.4930,1.6640,-0.1200,0.6660,0.1660,33153,30571,-8,64
61418,-0.5210,-6.6930,1.6990,-0.0590,0.6400,0.1380,33160,30566,10,100
61438,-0.7120,-7.0130,1.8470,-0.0530,0.6280,0.1070,33160,30572,-5,25
61458,-0.7540,-7.5090,2.1220,-0.0620,0.6360,0.0960,33159,30581,3,9
61478,-0.7900,-8.0210,2.3640,-0.0800,0.6490,0.0810,33165,30591,-3,9
61498,-0.9030,-8.5340,2.3580,-0.1640,0.6500,0.1000,33166,30592,-1,1
61518,-0.9150,-9.0540,2.3680,-0.2660,0.6220,0.1260,33169,30591,7,49
61538,-0.9230,-9.3700,2.3620,-0.3140,0.5690,0.1520,33167,30592,4,16
61558,-0.9860,-9.6280,2.3100,-0.2860,0.4900,0.1720,33167,30593,15,225
61578,-1.0460,-9.9200,2.3870,-0.1190,0.3940,0.1470,33161,30595,-1,1
61598,-0.8830,-10.9130,2.7030,0.1920,0.2730,0.0910,33141,30626,13,169
61619,-0.9780,-11.7570,2.6830,0.1850,0.1950,0.0700,33141,30662,20,400
61639,-1.1320,-12.7920,2.5570,-0.0540,0.1290,0.0050,33136,30714,20,400
61659,-0.9790,-13.8150,2.4820,-0.4220,0.0770,-0.1040,33134,30742,-4,16
61679,-0.6540,-14.2680,2.6470,-0.6930,0.0330,-0.2240,33138,30749,-8,64
61699,-0.2190,-13.6580,2.3040,-0.6620,-0.0230,-0.2440,33138,30711,0,0
61719,-0.3570,-11.9570,1.6510,-0.4430,-0.0850,-0.2110,33124,30635,-21,441
61739,-0.6660,-9.8620,0.9500,0.1110,-0.2000,-0.2540,33110,30552,7,49
61759,-1.1600,-8.1410,1.2190,0.7950,-0.2890,-0.3280,33066,30551,-1,1
61779,-1.0650,-7.3670,1.6500,1.2830,-0.3820,-0.4240,33072,30486,4,16
61799,-0.3170,-8.3220,1.9080,1.1240,-0.5160,-0.1950,33147,30371,6,36
61820,-0.4780,-8.5570,1.2820,1.0510,-0.5530,-0.1750,33169,30301,-21,441
61840,-0.5220,-8.6360,0.8500,1.0960,-0.5200,-0.2160,33162,30261,-8,64
61860,-0.2550,-7.8690,1.1650,1.2600,-0.4350,-0.5250,33143,30252,24,576
61880,0.4700,-7.8470,1.4040,1.3440,-0.3820,-0.6020,33133,30226,8,64
61900,0.4880,-8.6500,1.2090,1.0140,-0.3630,-0.5070,33115,30238,-5,25
61920,0.4140,-7.7480,1.5600,0.7420,-0.3560,-0.5460,33102,30249,-2,4
61940,0.6430,-7.7330,1.5100,0.6650,-0.3710,-0.5220,33134,30257,20,400
61960,0.8480,-7.5360,1.9820,0.7430,-0.3530,-0.4920,33170,30268,10,100
61980,0.7460,-7.7900,2.5160,0.8290,-0.3420,-0.3830,33178,30276,-10,100
62000,0.7820,-7.7010,3.4620,0.9840,-0.2550,-0.3440,33204,30270,1,1
62021,0.8250,-8.0070,4.0580,0.7100,-0.2220,-0.2320,33234,30254,1,1
62041,0.7780,-8.0770,4.3600,0.4430,-0.1370,-0.1340,33252,30238,19,361
62061,0.7470,-8.2960,4.9570,0.1760,-0.0010,-0.1180,33307,30230,4,16
62081,1.6600,-9.6830,5.6990,-0.2020,0.1060,0.1570,33389,30219,1,1
62101,0.5660,-8.7080,5.1430,-0.1060,0.1530,0.0740,33467,30220,-1,1
62121,0.1500,-9.0500,4.2920,-0.1920,0.1670,0.1480,33526,30222,7,49
62141,0.0560,-8.8470,4.5440,-0.2690,0.0890,0.1350,33551,30229,0,0
62161,0.0850,-9.6950,4.5500,-0.2170,0.0610,0.0650,33581,30235,6,36
62181,0.2670,-10.5000,4.4650,0.0780,0.0950,-0.0730,33625,30248,6,36
62201,0.8660,-10.3450,5.6160,0.4840,0.1430,-0.2400,33700,30267,5,25
62222,1.3830,-10.8970,5.9260,0.5120,0.1480,-0.2930,33743,30277,4,16
62242,1.7020,-10.4590,6.3090,0.5780,0.1830,-0.4680,33773,30281,2,4
62262,1.8440,-9.5470,6.0440,0.6050,0.2190,-0.5810,33789,30288,-9,81
62282,1.7110,-8.3900,5.7630,0.6060,0.2390,-0.6470,33816,30295,7,49
62302,1.3970,-7.2360,5.7460,0.7580,0.2470,-0.6960,33830,30302,3,9
62322,1.2110,-6.2260,6.6250,0.8110,0.3720,-0.6870,33844,30307,-15,225
62342,1.3380,-5.2860,7.1230,0.5960,0.4510,-0.7210,33858,30316,0,0
62362,1.8830,-5.5220,7.5070,0.3320,0.5840,-0.7440,33877,30329,2,4
62382,1.9580,-5.6120,7.6350,0.1900,0.7850,-0.8630,33890,30342,8,64
62402,1.9070,-5.5950,7.3660,0.0560,1.0580,-1.0390,33906,30353,27,729
62423,1.2900,-5.1510,6.4720,-0.1460,1.1700,-1.1290,33910,30354,17,289
62443,1.1050,-4.6710,5.8720,-0.2740,1.1760,-1.1530,33912,30359,10,100
62463,0.6270,-4.9920,5.4320,-0.1080,1.1700,-1.1420,33918,30362,25,625
62483,0.8420,-6.2460,5.9680,-0.0410,1.1890,-1.0450,33920,30361,-5,25
62503,0.9070,-7.1970,6.0060,-0.3270,1.2030,-0.9730,33921,30360,9,81
62523,0.7610,-7.5080,4.8650,-0.6760,1.1330,-0.9090,33923,30362,20,400
62543,0.2900,-7.0550,3.6990,-0.9290,1.0390,-0.8230,33930,30375,13,169
62563,0.5020,-6.3060,3.9240,-0.5710,0.9570,-0.8160,33956,30389,-5,25
62583,1.4170,-7.8220,3.7910,-0.2000,0.8640,-0.7320,33964,30386,9,81
62605,1.3500,-7.5000,3.8100,0.0620,0.7600,-0.8570,33986,30389,2,4
62625,1.3720,-7.4520,3.2020,0.2720,0.6540,-0.8180,34007,30400,0,0
62645,1.4390,-7.2840,2.8800,0.4670,0.4720,-0.7170,34015,30404,-7,49
62665,2.1890,-7.6720,3.4480,0.5810,0.3100,-0.7030,34038,30423,16,256
62685,2.9780,-9.4080,4.0650,0.7370,0.1300,-0.6030,34068,30436,10,100
62705,3.8610,-10.4890,3.8450,0.5530,0.0420,-0.6060,34091,30450,7,49
62725,3.8340,-8.9990,4.2130,0.4280,-0.0420,-0.5870,34121,30476,14,196
62745,4.4500,-8.3710,4.9050,0.2960,-0.1760,-0.6170,34150,30496,13,169
62765,4.8100,-9.0490,5.4610,0.5240,-0.2260,-0.8360,34209,30532,1,1
62786,5.7480,-9.6060,6.7960,0.4790,-0.2280,-0.8790,34260,30571,6,36
62806,5.7250,-10.6510,5.0790,0.3560,-0.3850,-0.7870,34319,30609,-15,225
62826,7.2530,-11.0320,8.9340,0.7510,-0.1530,-0.4360,34365,30627,18,324
62846,5.1500,-9.5790,6.0300,0.2480,-0.1660,-0.3130,34375,30643,21,441
62866,5.0640,-7.2930,5.1210,0.3380,-0.2640,-0.3820,34395,30645,4,16
62886,5.8200,-8.5030,5.7620,0.5270,-0.1500,-0.2650,34373,30629,6,36
62906,5.4360,-8.2320,6.1440,0.5470,0.0160,-0.2530,34360,30626,18,324
62926,4.3660,-5.5040,5.6710,0.4540,-0.0220,-0.3170,34382,30644,7,49
62946,3.8610,-4.2650,5.6910,0.5780,-0.0980,-0.3680,34417,30672,8,64
62966,3.5230,-3.8980,6.0140,0.6780,-0.0900,-0.3740,34497,30715,4,16
62987,3.2360,-4.1950,6.3080,0.6920,-0.1040,-0.4400,34556,30750,2,4
63007,3.0840,-4.5800,6.6220,0.4780,-0.0990,-0.4470,34602,30777,-3,9
63027,3.0020,-4.1840,6.8570,0.3960,-0.0800,-0.4520,34627,30804,8,64
63047,3.1330,-4.8260,7.1690,0.4880,0.0270,-0.4360,34649,30830,6,36
63067,3.5780,-5.5280,7.5170,0.5390,0.1090,-0.3690,34669,30855,5,25
63087,3.9220,-6.5130,7.2420,0.4910,0.1220,-0.2370,34709,30900,0,0
63107,4.3600,-6.6760,7.3670,0.5360,0.1890,-0.1080,34759,30953,-4,16
63127,4.1360,-6.8680,7.7250,0.3790,0.2850,0.1070,34792,31011,-1,1
63147,4.1930,-5.9300,8.2150,-0.0510,0.3590,0.1230,34816,31063,-15,225
63167,4.2880,-5.7210,7.0820,-0.4720,0.4240,0.0920,34820,31099,-7,49
63188,3.8240,-5.8200,6.8410,-0.5660,0.3900,0.1180,34806,31105,9,81
63208,3.7270,-6.3530,7.3380,-0.6430,0.3740,0.1710,34783,31112,-10,100
63228,3.9640,-6.0010,8.6560,-0.5810,0.3360,0.1470,34737,31105,11,121
63248,3.6160,-6.3890,8.7780,-0.3180,0.3830,0.0580,34680,31084,17,289
63268,3.1870,-6.5900,8.3710,-0.2380,0.3320,-0.1050,34627,31054,11,121
63288,3.6430,-6.9730,8.1010,-0.1830,0.2570,-0.2200,34579,31026,12,144
63308,3.8800,-6.9770,8.2420,-0.2940,0.1270,-0.3810,34567,31014,-8,64
63328,3.8620,-6.7670,8.7510,-0.4300,0.0380,-0.5820,34552,30994,7,49
63348,3.2880,-6.7360,8.3460,-0.5960,-0.0800,-0.7500,34520,30969,-6,36
63368,2.4270,-7.5310,7.2260,-0.6530,-0.2290,-0.6750,34430,30908,1,1
63389,2.3680,-7.4030,7.1060,-0.7980,-0.2190,-0.5650,34367,30867,22,484
63409,3.5250,-6.6590,6.7550,-1.1160,-0.2180,-0.5010,34326,30833,6,36
63429,3.5160,-5.4680,5.9890,-1.3170,-0.2160,-0.4680,34271,30784,10,100
63449,3.5890,-3.9090,5.3690,-1.1580,-0.1730,-0.5850,34203,30732,6,36
63469,4.1660,-3.5160,4.9330,-0.1610,-0.1100,-0.5830,34134,30686,2,4
63489,4.0160,-5.0550,4.8780,0.2540,-0.1810,-0.4900,34067,30600,5,25
63509,4.2270,-5.3940,5.7820,0.3220,-0.2090,-0.4150,33843,30414,5,25
63529,4.3180,-5.8910,6.7010,0.1770,-0.1820,-0.3860,33316,30106,15,225
63549,4.2340,-5.7600,7.1770,-0.0680,-0.1000,-0.4460,32474,30243,15,225
63569,4.2010,-5.8950,6.3280,-0.0730,0.1410,-0.3900,32895,32613,-5,25
63590,4.5120,-5.5980,6.2870,-0.1110,0.2320,-0.3460,33775,35146,-4,16
63610,4.2740,-6.2250,6.3630,-0.2480,0.3170,-0.2870,35751,37923,17,289
63630,4.1430,-6.5480,6.1000,-0.1400,0.4210,-0.0820,37194,39616,3,9
63650,4.5690,-5.7510,6.1210,-0.2230,0.4120,0.0100,37961,39789,-2,4
63670,4.2380,-5.7200,6.8890,-0.2370,0.3780,0.1700,36929,37389,-3,9
63690,3.2200,-6.1930,6.5730,-0.4860,0.3900,0.3100,34527,34406,-2,4
63710,3.0200,-5.3880,6.2870,-1.2620,0.3040,0.2880,32723,32796,0,0
63730,3.4320,-5.8250,6.6580,-0.8040,0.3600,0.4820,32111,32316,2,4
63750,4.4420,-6.7700,6.9290,-0.4360,0.4880,0.6230,31975,32243,0,0
63770,5.0330,-5.8060,5.7080,0.0630,0.5180,0.7420,32165,32480,5,25
63791,4.5130,-5.4180,5.7950,0.1510,0.4600,0.7080,32166,32565,2,4
63811,3.5180,-4.4360,5.8170,0.0970,0.3530,0.5640,32148,32615,2,4
63831,3.7420,-6.0110,5.2400,0.1030,0.1970,0.4790,32092,32560,7,49
63851,3.8460,-7.3040,5.7520,0.1610,-0.0240,0.3450,31964,32379,4,16
63871,3.5050,-8.3560,5.6860,0.2660,-0.1750,0.0860,31796,32200,10,100
63891,3.0410,-9.3610,5.4780,-0.0130,-0.4140,-0.0680,31641,32105,14,196
63911,3.0710,-7.6300,8.0950,0.2100,-0.4020,-0.2540,31629,32167,-1,1
63931,3.0440,-7.9500,7.1920,0.2020,-0.3390,-0.3500,31807,32327,7,49
63951,2.7660,-6.7780,6.7440,0.0170,-0.3080,-0.4280,32131,32493,4,16
63971,3.4750,-6.2840,6.5410,-0.1370,-0.2460,-0.4020,32592,32626,9,81
63992,3.8620,-6.1520,5.9710,-0.1140,-0.1930,-0.3580,32801,32791,24,576
64012,4.5030,-6.4270,5.7760,-0.1550,-0.1500,-0.3150,33035,33048,-6,36
64032,4.3570,-6.0760,5.3940,-0.2090,-0.2190,-0.2880,33342,32990,-5,25
64052,3.9280,-5.8630,5.5050,-0.2500,-0.3150,-0.2150,33504,32614,-10,100
64072,3.7660,-5.9480,5.8180,-0.3480,-0.3810,-0.1350,33549,32078,-5,25
64092,3.9220,-6.1610,5.8610,-0.4720,-0.3860,-0.0790,33626,31700,-1,1
64112,3.7920,-5.8530,5.7590,-0.4470,-0.3400,-0.0610,33732,31461,0,0
64132,3.6950,-6.2440,5.4320,-0.3100,-0.3160,-0.0020,33917,31386,4,16
64152,4.0380,-6.3520,5.6470,-0.4310,-0.3260,0.1040,34072,31365,0,0
64172,4.7080,-6.5640,6.3950,-0.5230,-0.2490,0.2170,34171,31358,11,121
64193,4.3240,-7.1430,6.0670,-0.6700,-0.1440,0.2730,34177,31350,5,25
64213,4.1850,-7.2690,6.2030,-0.7020,-0.0160,0.3020,34150,31343,2,4
64233,3.8440,-6.8500,5.4410,-0.5050,0.0630,0.3650,34133,31337,3,9
64253,3.3460,-6.6940,4.6650,-0.1440,0.1110,0.3600,34132,31349,1,1
64273,3.3660,-6.6930,4.9670,-0.0590,0.1890,0.3220,34155,31358,2,4
64293,3.4120,-6.3510,5.2530,-0.0110,0.1890,0.2850,34172,31356,0,0
64313,3.7170,-6.7640,5.6480,0.0890,0.2680,0.2680,34163,31354,3,9
64333,4.1900,-7.3090,5.6000,-0.0080,0.3050,0.2480,34162,31352,7,49
64353,4.0490,-6.5190,5.5050,-0.0480,0.3120,0.1940,34169,31356,5,25
64373,3.7760,-6.9660,5.5640,0.3750,0.1880,0.1440,34162,31332,7,49
64394,4.0710,-8.2970,6.3940,0.4220,0.0340,0.2120,33927,31247,-15,225
64414,4.5690,-8.7870,8.8230,0.5220,0.2440,-0.0080,33408,31340,15,225
64434,3.8140,-8.5280,7.5450,0.3260,0.2410,-0.2370,33353,31872,4,16
64454,2.9320,-8.3290,5.3730,0.0200,0.0720,-0.3940,33511,32106,20,400
64474,3.2620,-8.4720,5.5550,0.1450,-0.0370,-0.4540,33587,32073,0,0
64494,3.6540,-8.0130,7.3920,0.3890,0.0010,-0.5170,33688,31968,7,49
64514,3.6450,-7.2640,7.8730,0.4970,0.0950,-0.5010,33751,31898,16,256
64534,3.7510,-7.0960,6.7600,0.2170,0.0640,-0.4310,33790,31777,-6,36
64554,3.8870,-5.5510,6.0590,0.0360,0.0030,-0.3990,33788,31596,14,196
64574,4.4140,-5.0210,6.1160,-0.0290,-0.0620,-0.3230,33837,31389,14,196
64595,3.9650,-5.2950,6.2920,0.2510,-0.1390,-0.4030,33921,31340,10,100
64615,3.6550,-6.0690,6.9930,0.4470,-0.1490,-0.3560,33962,31318,6,36
64635,3.4460,-5.8350,7.3770,0.4040,-0.1690,-0.3010,33992,31303,6,36
64655,3.4670,-5.9320,7.3210,0.6090,-0.1190,-0.1920,33935,31293,6,36
64675,3.7390,-6.3590,6.7830,0.7420,-0.0540,-0.0980,33779,31283,4,16
64695,3.8510,-6.2780,6.0060,0.8350,0.0940,-0.0260,33543,31368,8,64
64715,4.2900,-5.6710,4.8910,0.8030,0.1330,-0.0340,33521,31524,9,81
64735,5.4400,-5.4380,4.9640,1.1130,0.2370,-0.0500,33614,31501,8,64
64755,4.7940,-5.8730,5.5280,1.3620,0.1940,0.1000,33638,31584,13,169
64775,4.0260,-5.7710,6.5970,1.4910,0.3110,0.3960,33471,31988,0,0
64796,3.7400,-4.8050,6.9000,0.8530,0.3060,0.3990,33510,32257,1,1
64816,3.4820,-3.5520,7.5210,0.3950,0.4550,0.3910,33540,32339,0,0
64836,3.0770,-3.9460,6.3700,0.0380,0.4780,0.3690,33567,32272,4,16
64856,3.7940,-4.2010,7.0650,-0.1150,0.4280,0.4960,33567,32355,7,49
64876,4.7510,-5.4460,7.2840,0.3130,0.5100,0.5820,33542,32405,8,64
64896,3.9030,-5.5580,7.3920,0.5160,0.4730,0.5270,33558,32393,0,0
64916,2.7690,-4.6750,7.5170,0.6110,0.4750,0.5670,33571,32361,0,0
64936,2.7640,-3.7940,7.7020,0.1610,0.4240,0.5630,33674,32243,1,1
64956,4.1540,-3.8920,7.5990,-0.2620,0.1910,0.3540,33804,31974,5,25
64977,4.7730,-5.9890,8.0120,-0.4440,-0.0390,0.2750,33777,31835,0,0
64997,4.7000,-6.6400,8.5130,-0.6800,-0.2180,0.1750,33747,31742,3,9
65017,4.1680,-6.3240,8.2820,-0.8340,-0.2860,0.0590,33728,31630,10,100
65037,3.9850,-6.1300,7.2210,-0.8270,-0.2580,0.0490,33764,31487,-22,484
65057,3.1080,-5.3790,6.4220,-0.9670,-0.3110,0.0600,33870,31420,7,49
65077,2.8900,-4.4680,6.0790,-0.9330,-0.2990,0.0540,34013,31396,-18,324
65097,2.9270,-4.6890,5.2440,-0.8800,-0.2720,0.0630,34242,31412,21,441
65117,3.2550,-4.5250,5.4240,-0.6760,-0.2340,0.0540,34401,31448,10,100
65137,3.7070,-4.7130,6.0010,-0.4120,-0.1140,0.0440,34481,31470,-15,225
65157,4.2080,-6.8580,6.4020,-0.3980,-0.1880,-0.0760,34565,31493,0,0
65178,3.1990,-5.5350,5.8020,-0.4900,-0.2450,-0.2370,34591,31496,11,121
65198,2.7170,-4.6960,6.0930,-0.4540,-0.2670,-0.3010,34597,31487,9,81
65218,2.9310,-6.1970,6.0060,-0.2560,-0.1950,-0.3580,34602,31487,19,361
65238,3.2170,-6.4480,6.5240,-0.2450,-0.0660,-0.4090,34615,31497,22,484
65258,3.3650,-7.0570,7.1750,-0.2620,0.0310,-0.3740,34661,31534,13,169
65278,3.2050,-7.8540,7.4150,-0.1200,0.0850,-0.2840,34733,31579,11,121
65298,3.0960,-6.7070,8.3590,-0.0390,0.1170,-0.2210,34801,31617,11,121
65318,2.6430,-7.7880,8.1770,-0.0090,0.1830,-0.0310,34850,31639,8,64
65338,2.2000,-8.5880,7.5970,-0.0790,0.2250,0.0990,34874,31654,6,36
65358,1.5250,-7.0070,8.2650,-0.1420,0.2960,0.2160,34847,31656,-5,25
65379,2.6120,-6.4920,8.7470,-0.2140,0.3830,0.1100,34862,31685,-3,9
65399,3.2590,-7.7270,7.8280,-0.2820,0.4640,0.1220,34860,31682,8,64
65419,3.7840,-7.0320,7.7070,-0.7430,0.4990,0.1750,34802,31642,1,1
65439,3.9480,-5.8730,7.4540,-0.7400,0.5250,0.0870,34713,31592,7,49
65459,4.2640,-6.3250,7.0350,-0.6760,0.5010,0.0290,34648,31554,3,9
65479,3.9400,-6.0590,7.3230,-0.5730,0.3940,-0.0140,34573,31502,12,144
65499,4.0590,-5.7250,7.4880,-0.3290,0.2760,-0.0450,34473,31439,10,100
65519,3.7550,-6.0310,7.4810,-0.1360,0.0820,-0.1610,34341,31342,19,361
65539,3.3610,-6.7940,7.1510,-0.0310,-0.0480,-0.3570,34180,31279,10,100
65559,3.1440,-6.7720,7.5210,-0.2030,-0.1680,-0.5420,33908,31200,3,9
65580,3.1710,-6.8670,7.0930,-0.1790,-0.2600,-0.5800,33692,31191,-3,9
65600,3.4210,-7.1250,6.6080,0.0540,-0.2830,-0.5200,33556,31241,16,256
65620,3.8500,-6.8250,6.0290,0.1060,-0.3050,-0.4040,33542,31266,0,0
65640,4.3490,-6.2230,5.6750,0.0640,-0.3590,-0.3140,33564,31291,-4,16
65660,4.3860,-5.4130,5.7890,-0.1070,-0.4110,-0.2800,33593,31302,-2,4
65680,4.4280,-6.1180,5.9410,-0.5530,-0.4800,-0.2170,33633,31310,0,0
65700,4.3310,-5.4250,6.3820,-0.7680,-0.4160,-0.3140,33729,31321,10,100
65720,3.9650,-5.2580,6.1040,-0.4900,-0.3370,-0.3090,33873,31320,1,1
65740,3.8250,-5.9120,5.6690,-0.4040,-0.2500,-0.2230,33977,31324,14,196
65760,3.7280,-6.6850,5.3270,-0.5390,-0.1830,0.0680,34018,31313,-5,25
65781,3.7180,-6.5770,5.5780,-0.4260,-0.1320,0.2170,34025,31308,2,4
65801,3.3140,-5.4680,4.7510,-0.3540,-0.1070,0.1690,34004,31305,4,16
65821,3.2200,-5.4590,5.4530,0.0180,-0.0230,0.2300,33996,31310,0,0
65841,3.7310,-6.7110,5.8890,0.2000,0.0620,0.4090,34013,31313,5,25
65861,4.0170,-7.4650,5.9590,-0.1120,0.1560,0.5020,34024,31312,0,0
65881,3.9110,-6.8910,6.6460,-0.3980,0.2770,0.5860,34027,31308,9,81
65901,3.2480,-6.3910,6.0780,-0.4660,0.2540,0.6820,34020,31302,4,16
65921,2.6770,-6.4580,5.6320,-0.3300,0.2320,0.7350,34012,31295,3,9
65941,2.7270,-7.0370,5.6180,-0.2200,0.2140,0.8010,33990,31293,1,1
65961,3.3830,-7.5350,6.5120,-0.0550,0.2580,0.8080,33965,31282,0,0
65982,3.4720,-7.7130,6.4090,-0.0470,0.2630,0.8000,33955,31280,18,324
66002,3.8090,-7.3310,6.0110,-0.1600,0.2400,0.7520,33941,31275,0,0
66022,4.6210,-6.8150,6.2290,-0.2170,0.1640,0.5900,33941,31282,-7,49
66042,5.0010,-7.3510,6.5910,-0.2090,0.0720,0.3750,33932,31284,10,100
66062,5.2820,-8.2160,6.9040,-0.3940,0.0090,0.1700,33933,31285,0,0
66082,4.9550,-8.4980,6.9180,-0.6660,-0.0130,0.0170,33922,31280,-6,36
66102,4.8420,-8.5080,6.8030,-0.9680,-0.0070,-0.0130,33892,31270,12,144
66122,4.2640,-8.3320,5.7590,-1.2330,-0.0650,0.0360,33828,31236,3,9
66142,3.8640,-7.9270,4.8950,-1.2770,-0.0820,0.1010,33738,31216,24,576
66162,4.2560,-8.1140,3.5030,-1.1460,-0.1340,0.2340,33597,31211,28,784
66183,4.3690,-7.3000,3.0800,-0.6460,-0.1370,0.1470,33537,31252,29,841
66203,4.4380,-7.2720,3.0920,-0.0100,-0.1630,0.1130,33668,31289,-4,16
66223,4.3970,-7.8940,2.9220,0.3650,-0.3120,0.1700,33794,31317,9,81
66243,4.4900,-8.1670,3.2760,0.2850,-0.5410,0.3340,33903,31337,22,484
66263,4.2530,-7.9100,3.6620,0.1930,-0.7530,0.5160,33980,31355,-13,169
66283,3.7350,-7.8250,3.5180,0.2060,-0.9820,0.6730,34054,31360,-2,4
66303,3.5270,-6.8640,3.4210,0.3070,-1.1920,0.7020,34104,31371,-13,169
66323,3.2070,-6.4750,3.5390,0.6230,-1.3520,0.7190,34154,31392,-9,81
66343,2.7830,-6.6930,4.1480,0.9220,-1.4870,0.7500,34205,31411,1,1
66363,2.4210,-6.5250,4.5810,1.2300,-1.6100,0.7140,34234,31425,2,4
66384,2.2050,-6.7420,4.1140,1.2730,-1.6680,0.6370,34247,31440,0,0
66404,2.4400,-7.1400,3.8770,1.1390,-1.7380,0.5480,34265,31453,3,9
66424,3.0120,-7.3480,4.0390,0.8950,-1.8510,0.4950,34293,31472,2,4
66444,3.2360,-6.7270,4.9490,0.6860,-1.9620,0.4300,34325,31492,5,25
66464,3.1700,-6.2320,4.9930,0.7060,-2.0940,0.3260,34361,31514,18,324
66484,3.3290,-6.0660,4.8210,0.8270,-2.2080,0.2010,34390,31532,10,100
66504,3.9950,-6.4860,5.0780,1.0390,-2.2770,0.0330,34407,31552,2,4
66524,4.9030,-7.1560,5.4770,1.1980,-2.2980,-0.2420,34419,31558,31,961
66544,5.6350,-7.4000,6.0370,1.0730,-2.3010,-0.5200,34425,31569,6,36
66564,6.1870,-6.7110,6.7760,0.5520,-2.3140,-0.8630,34415,31560,26,676
66585,6.8630,-6.9790,7.2740,0.2330,-2.2520,-1.0270,34373,31549,6,36
66605,7.7170,-8.1910,8.0220,0.0140,-2.0320,-1.1240,34339,31541,-1,1
66625,8.0820,-8.9240,8.0180,-0.1440,-1.7220,-1.2010,34302,31529,7,49
66645,7.2600,-8.4990,7.2200,-0.3780,-1.3110,-1.1560,34273,31523,2,4
66665,6.5980,-7.5290,6.7700,-0.6430,-0.8990,-0.9290,34265,31532,21,441
66685,5.9320,-6.2810,6.5240,-0.9050,-0.5560,-0.6560,34271,31534,1,1
66705,5.3440,-5.0840,6.3230,-0.9920,-0.2630,-0.4340,34276,31535,-17,289
66725,5.0100,-4.3190,5.9410,-0.8730,-0.0170,-0.3210,34276,31533,6,36
66745,4.7290,-4.1590,5.5810,-0.6950,0.2160,-0.2920,34267,31532,3,9
66765,4.6780,-4.7760,5.1560,-0.5730,0.5230,-0.3470,34258,31539,10,100
66786,4.5670,-5.2340,4.9940,-0.6320,0.7240,-0.4030,34258,31539,4,16
66806,4.3810,-5.3390,4.9180,-0.7670,0.9010,-0.4000,34262,31539,-11,121
66826,4.3310,-5.2520,4.8260,-0.8880,1.0100,-0.3410,34282,31542,-3,9
66846,4.2660,-5.0910,4.7150,-0.9120,1.0950,-0.2460,34290,31548,9,81
66866,4.3290,-5.1220,4.5900,-0.8230,1.1320,-0.1790,34304,31551,0,0
66886,4.3360,-5.3770,4.5120,-0.7010,1.1270,-0.1690,34303,31551,12,144
66906,4.5190,-5.7310,4.5810,-0.5950,1.1030,-0.1700,34309,31549,0,0
66926,4.6970,-6.1350,4.6110,-0.5660,1.0540,-0.1500,34311,31553,0,0
66946,4.9390,-6.4800,4.7300,-0.5890,1.0090,-0.1080,34309,31553,7,49
66966,5.2280,-6.9000,4.6230,-0.6650,0.9050,-0.0210,34316,31554,9,81
66987,5.3970,-6.9770,4.5420,-0.7100,0.8060,0.0700,34322,31560,0,0
67007,5.5100,-7.0800,4.5250,-0.7090,0.6550,0.1870,34330,31557,4,16
67027,5.8310,-7.3870,4.5810,-0.6010,0.4740,0.2620,34322,31558,1,1
67047,6.1760,-7.8280,4.4840,-0.4190,0.2740,0.2720,34325,31557,19,361
67067,6.5580,-8.3690,4.5560,-0.2790,0.0570,0.2920,34332,31563,5,25
67087,6.8500,-9.1950,4.8030,-0.2300,-0.1810,0.3880,34347,31577,14,196
67107,6.9060,-10.1230,5.1120,-0.1990,-0.3490,0.4180,34355,31581,8,64
67127,6.7160,-10.9390,5.2420,-0.1990,-0.4390,0.4020,34351,31584,15,225
67147,6.1460,-11.1990,5.0650,-0.2370,-0.4830,0.4180,34355,31588,0,0
67167,4.9510,-10.3930,4.5710,-0.3360,-0.5000,0.7920,34377,31597,6,36
67188,4.1320,-9.6990,4.1580,-0.4110,-0.5070,1.1170,34385,31593,12,144
67208,3.7270,-9.2260,3.9920,-0.3900,-0.5310,1.3590,34382,31594,3,9
67228,3.6200,-9.1360,3.9380,-0.2670,-0.5570,1.4970,34386,31591,-11,121
67248,3.6970,-9.3480,4.1040,0.0010,-0.5760,1.5780,34386,31588,16,256
67268,3.8300,-9.7120,4.1120,0.3900,-0.5430,1.6710,34386,31592,6,36
67288,3.8340,-9.8410,3.7370,0.7110,-0.4460,1.8030,34381,31586,15,225
67308,3.7420,-10.0380,3.6730,0.9400,-0.3220,1.8910,34376,31585,15,225
67328,3.8910,-9.8890,3.6030,1.0230,-0.1930,1.9300,34368,31581,-2,4
67348,3.9790,-9.4420,3.4880,0.9930,-0.0730,1.9410,34359,31577,-10,100
67368,3.7280,-8.4200,3.0100,0.7350,0.0730,1.9340,34354,31571,-20,400
67389,3.5120,-7.5740,2.7220,0.5470,0.1300,1.9130,34352,31567,8,64
67409,3.4230,-6.7770,2.5630,0.4300,0.1600,1.8540,34348,31560,13,169
67429,3.3230,-6.1120,2.4000,0.4040,0.1470,1.7360,34338,31557,0,0
67449,3.2850,-5.5550,2.2800,0.4140,0.0840,1.5740,34340,31557,-1,1
67469,3.3200,-5.3240,2.1520,0.4380,-0.0130,1.3970,34332,31548,5,25
67489,3.2550,-4.9280,1.9780,0.4650,-0.1420,1.1550,34325,31550,-2,4
67509,3.3830,-4.4230,1.8850,0.4740,-0.2870,0.8790,34324,31550,1,1
67529,3.4080,-4.0210,1.8670,0.4650,-0.4590,0.5690,34313,31542,9,81
67549,3.8020,-3.6950,2.1510,0.4900,-0.7520,-0.0030,34292,31533,12,144
67571,4.5540,-4.2370,2.7550,0.5760,-0.9300,-0.4220,34272,31525,10,100
67591,5.4400,-4.7580,3.2060,0.7290,-1.1200,-0.8970,34239,31516,14,196
67611,6.1050,-4.8890,3.1870,0.8850,-1.3530,-1.4410,34201,31505,5,25
67631,6.8530,-4.8650,3.0620,0.8830,-1.6090,-1.9460,34178,31490,-10,100
67651,7.9260,-4.8260,3.0200,0.6710,-1.8610,-2.4640,34130,31476,12,144
67671,9.5180,-5.7190,3.3910,0.2330,-2.0200,-2.9330,34075,31459,-8,64
67691,11.0190,-6.9000,3.8880,-0.3550,-2.0970,-3.4230,33972,31437,7,49
67711,11.0540,-6.7040,3.9590,-1.0070,-2.0300,-3.8690,33885,31424,9,81
67731,10.3250,-5.4430,3.6810,-1.7220,-1.7290,-3.9360,33829,31398,9,81
67752,9.7060,-4.4480,3.3050,-2.0010,-1.4990,-3.8210,33796,31387,-5,25
67772,9.2760,-3.3600,2.7220,-2.0740,-1.2730,-3.7000,33783,31385,10,100
67792,9.4480,-2.7160,2.2690,-1.9900,-1.0820,-3.6380,33786,31384,-12,144
67812,9.9550,-2.4640,1.8850,-1.8980,-0.8910,-3.6350,33789,31379,8,64
67832,10.5310,-2.7230,1.3990,-1.9390,-0.6600,-3.7020,33763,31373,-3,9
67852,10.9880,-3.2020,1.0100,-2.1570,-0.3980,-3.8520,33732,31371,1,1
67872,11.2200,-3.5550,0.8280,-2.5340,-0.1810,-3.9730,33708,31370,-5,25
67892,11.4230,-3.8700,0.7220,-2.9760,-0.0220,-3.9970,33706,31377,6,36
67912,11.6610,-3.9950,0.6600,-3.4380,0.1160,-3.9270,33713,31387,-12,144
67932,11.8630,-4.1500,1.0260,-3.7860,0.2450,-3.6380,33734,31393,0,0
67953,11.6390,-4.1530,1.3020,-3.6790,0.3060,-3.3760,33752,31394,8,64
67973,11.2870,-4.1470,1.3370,-3.2760,0.3510,-3.0850,33765,31398,10,100
67993,11.0650,-4.3690,1.0990,-2.7280,0.3410,-2.7850,33777,31402,9,81
68013,10.7910,-4.7910,0.7250,-2.2130,0.3120,-2.4540,33786,31402,14,196
68033,10.4340,-5.2290,0.2650,-1.9150,0.2580,-2.0550,33808,31413,7,49
68053,10.2680,-5.3010,0.0560,-1.7930,0.1590,-1.5920,33838,31415,7,49
68073,10.2510,-5.0150,0.4630,-1.7390,0.0380,-1.0830,33852,31413,7,49
68093,10.1960,-4.6890,0.6740,-1.6560,-0.1060,-0.6190,33854,31407,5,25
68113,10.2960,-4.5200,0.7520,-1.5310,-0.2420,-0.2640,33848,31408,6,36
68133,10.5610,-4.2280,1.2560,-1.1810,-0.4390,0.0310,33827,31396,9,81
68154,11.2000,-3.8910,1.6120,-0.8150,-0.5670,0.1290,33815,31394,0,0
68174,12.3920,-3.7540,2.0520,-0.3550,-0.6960,0.1780,33804,31390,8,64
68194,13.1150,-4.0380,2.4890,0.1570,-0.7740,0.1630,33775,31384,15,225
68214,13.2820,-4.4840,2.5160,0.6100,-0.7940,0.1180,33746,31373,7,49
68234,12.5280,-4.6990,2.7080,0.9650,-0.7260,0.1690,33736,31369,-1,1
68254,11.1590,-4.5150,2.5870,1.1800,-0.6200,0.3840,33744,31357,3,9
68274,9.7740,-3.9520,2.1540,1.2910,-0.5590,0.7120,33771,31356,15,225
68294,8.6140,-3.4190,1.9250,1.3480,-0.5000,1.2120,33789,31352,0,0
68314,8.3490,-3.2920,1.8450,1.4640,-0.4290,1.7030,33786,31350,-16,256
68334,9.5830,-3.6720,1.8110,1.8900,-0.2370,2.1070,33735,31340,2,4
68355,10.6570,-3.8020,1.8520,2.3110,-0.0540,2.2200,33706,31336,-9,81
68375,11.5010,-3.8310,1.7260,2.7710,0.1120,2.3530,33670,31327,4,16
68395,12.4740,-4.0850,1.6520,3.1890,0.3110,2.5600,33582,31322,4,16
68415,12.6510,-4.3280,1.2560,3.2880,0.4980,2.7610,33538,31328,1,1
68435,12.6220,-4.5550,0.9840,3.0640,0.6830,2.9560,33518,31333,4,16
68455,12.9490,-4.5800,1.0470,2.7380,0.8980,3.1200,33465,31330,-11,121
68475,12.9850,-4.4090,1.1120,2.3290,1.0920,3.2510,33421,31338,20,400
68495,12.5030,-4.0270,1.0340,1.9170,1.2030,3.3640,33380,31373,15,225
68515,12.0660,-3.7540,1.0590,1.6490,1.2840,3.4010,33267,31530,21,441
68535,11.2080,-3.0490,0.6510,1.4590,1.2850,3.2500,33584,32425,13,169
68556,10.2390,-2.5150,-0.0380,1.3460,1.2040,3.1120,33824,32433,12,144
68576,9.3480,-2.1380,-0.3360,1.2030,1.0630,2.9330,33946,32367,4,16
68596,9.0670,-1.9020,-0.2040,1.1240,0.8860,2.6350,34012,32385,8,64
68616,8.6130,-1.4450,-0.3280,1.0290,0.6700,2.2400,34065,32271,4,16
68636,8.4280,-1.1770,-0.5430,0.9410,0.4360,1.7920,34100,32108,8,64
68656,8.5820,-0.9900,-0.6910,0.8530,0.2350,1.2620,34110,32050,6,36
68676,8.6890,-1.0410,-0.8300,0.6710,0.0150,0.6080,34106,32028,-13,169
68696,8.8480,-0.8860,-0.7430,0.4550,-0.2010,-0.0580,34104,31977,2,4
68716,9.4340,-0.8130,-0.8820,0.2060,-0.4590,-0.6760,34100,31899,1,1
68736,9.9840,-1.4200,-1.0300,-0.2390,-0.8790,-1.5010,34087,31827,2,4
68757,10.6700,-2.0060,-0.8620,-0.5570,-1.1090,-2.1210,34083,31829,14,196
68777,10.9210,-2.3210,-0.3580,-0.8750,-1.3050,-2.7230,34076,31833,7,49
68797,11.1200,-2.1860,0.3950,-1.0960,-1.4700,-3.1510,34071,31809,4,16
68817,11.0940,-1.9500,0.8480,-1.1070,-1.6160,-3.3970,34060,31786,0,0
68837,11.1800,-1.3870,1.2810,-0.8830,-1.6910,-3.4010,34042,31767,10,100
68857,11.6650,-1.4500,1.4270,-0.5490,-1.7130,-3.2680,34027,31805,0,0
68877,12.2540,-1.9310,1.3340,-0.3080,-1.6700,-3.2290,34011,31881,16,256
68897,12.3310,-2.4700,1.1990,-0.3260,-1.5670,-3.2680,34011,31943,1,1
68917,11.9630,-2.8300,1.2790,-0.6190,-1.4480,-3.2090,34014,32020,0,0
68937,11.0010,-3.0490,1.5680,-1.2410,-1.2560,-2.9190,34040,32186,4,16
68958,10.2530,-3.0050,1.8380,-1.5360,-1.1530,-2.6330,34076,32236,22,484
68978,9.7280,-3.1410,1.9920,-1.6680,-1.0340,-2.2660,34075,32243,0,0
68998,9.4040,-3.0990,2.1150,-1.5500,-0.9140,-1.9520,34071,32253,4,16
69018,9.2640,-3.1570,2.1670,-1.2790,-0.8130,-1.7000,34085,32266,4,16
69038,9.2620,-3.3350,2.2950,-1.0020,-0.7300,-1.4610,34101,32277,7,49
69058,9.3450,-3.6060,2.4640,-0.8810,-0.6700,-1.2700,34106,32293,9,81
69078,9.3350,-3.7860,2.5610,-0.8870,-0.6310,-1.1030,34106,32315,1,1
69098,9.0260,-3.9360,2.4500,-0.9620,-0.5920,-0.9360,34100,32290,3,9
69118,8.7350,-3.8370,2.4730,-0.9880,-0.5500,-0.7520,34086,32242,8,64
69138,8.8180,-3.5940,2.5680,-0.8630,-0.4800,-0.4180,34069,32186,7,49
69159,9.3890,-3.5720,2.7090,-0.7050,-0.4230,-0.1760,34065,32182,22,484
69179,10.3310,-3.6220,2.9590,-0.5340,-0.3580,0.0500,34069,32240,3,9
69199,11.4390,-3.5360,2.9760,-0.3630,-0.2650,0.2440,34083,32298,-1,1
69219,12.8290,-3.4190,2.6220,-0.2590,-0.1820,0.4280,34094,32338,-2,4
69239,14.4260,-3.4490,2.5810,-0.2560,-0.0820,0.5700,34097,32397,3,9
69259,15.2370,-3.6040,2.7560,-0.2060,0.0510,0.6180,34099,32407,0,0
69279,14.6730,-3.6800,3.0300,-0.0470,0.2560,0.7710,34080,32308,4,16
69299,12.8390,-3.9260,2.7700,0.1720,0.4670,1.1320,34047,32137,17,289
69319,11.2930,-4.1350,2.0630,0.3580,0.6650,1.6560,34000,31941,4,16
69339,10.8240,-4.1070,1.9030,0.6260,0.8630,2.5380,33948,31776,3,9
69360,11.8630,-3.9540,2.1070,0.8650,0.9890,2.9280,33930,31732,-6,36
69380,12.2310,-3.6340,1.7780,1.0750,1.1040,3.1620,33913,31682,9,81
69400,12.4940,-3.5570,1.2570,1.1980,1.2590,3.3100,33899,31638,0,0
69420,12.9330,-3.3470,0.8450,1.2460,1.3830,3.3490,33886,31604,18,324
69440,12.8620,-3.2690,0.4180,1.2140,1.4950,3.3240,33875,31568,12,144
69460,12.2280,-3.0670,-0.0720,1.1140,1.5700,3.2530,33861,31515,-2,4
69480,11.3370,-2.9260,-0.3340,0.9240,1.5830,3.1670,33842,31453,-10,100
69500,10.4230,-2.6310,-0.4070,0.6040,1.5250,3.0850,33818,31366,2,4
69520,8.8600,-1.7260,-0.3360,0.2630,1.3320,2.8380,33785,31239,3,9
69542,8.0880,-1.1980,-0.2530,0.3000,1.1830,2.5410,33766,31166,-1,1
69562,7.6960,-0.9110,-0.3180,0.4550,1.0330,2.1680,33756,31140,9,81
69582,7.5070,-1.0950,-0.2840,0.6240,0.8930,1.7510,33751,31125,3,9
69602,7.4590,-1.2710,-0.4010,0.7190,0.7390,1.3210,33749,31112,5,25
69622,7.0560,-1.4020,-0.5390,0.7020,0.5490,0.9320,33746,31113,3,9
69642,6.9120,-1.5120,-0.7000,0.5680,0.3340,0.5940,33739,31123,6,36
69662,7.3390,-1.4720,-0.5690,0.4390,0.1190,0.2030,33736,31145,-15,225
69682,8.0660,-1.4710,-0.2610,0.3980,-0.0980,-0.3070,33729,31156,8,64
69702,9.1510,-1.9030,0.0860,0.4180,-0.3480,-1.0460,33719,31173,3,9
69723,10.1930,-2.0960,-0.1410,0.3200,-0.5150,-1.4920,33715,31179,3,9
69743,11.3900,-2.0770,-0.4820,0.0140,-0.6950,-1.9040,33719,31175,9,81
69763,12.5700,-2.2570,-0.5110,-0.4270,-0.8410,-2.3080,33714,31181,3,9
69783,13.6450,-2.6730,-0.1980,-0.8850,-0.9960,-2.8010,33702,31192,9,81
69803,13.4640,-3.0040,0.5930,-1.2910,-1.1270,-3.2010,33691,31186,3,9
69823,12.7460,-2.9310,1.1530,-1.5440,-1.2400,-3.3470,33681,31167,0,0
69843,11.8470,-2.3700,1.6200,-1.5760,-1.3320,-3.2110,33669,31157,3,9
69863,11.4780,-1.6940,1.9790,-1.3280,-1.3710,-2.8570,33661,31192,-13,169
69883,11.6690,-1.4140,2.3180,-0.8540,-1.3530,-2.4790,33649,31259,8,64
69903,11.6200,-2.0820,2.4920,-0.2240,-1.0840,-2.1640,33665,31443,3,9
69925,10.9260,-2.6780,2.0540,-0.1550,-0.8430,-2.0650,33694,31531,0,0
69945,10.0350,-3.1720,1.7790,-0.5010,-0.6370,-1.9560,33705,31580,-1,1
69965,9.2700,-3.3390,1.8930,-1.0960,-0.5100,-1.7520,33721,31599,8,64
69985,8.7640,-3.1880,2.0410,-1.6560,-0.4310,-1.4930,33728,31606,1,1
70005,8.5570,-3.0410,2.1180,-1.9990,-0.3710,-1.2640,33737,31624,0,0
70025,8.4610,-2.9420,2.1130,-2.1230,-0.3080,-1.0940,33743,31642,2,4
70045,8.3610,-2.7260,1.9310,-1.9860,-0.2490,-0.9990,33742,31649,3,9
70065,8.3740,-2.7460,1.8320,-1.6960,-0.1910,-0.9390,33743,31657,1,1
70085,8.6900,-2.9700,1.7590,-1.2790,-0.1590,-0.8800,33750,31677,9,81
70106,8.8630,-3.2540,1.7590,-1.1260,-0.1840,-0.8370,33756,31682,4,16
70126,8.8590,-3.4420,1.6230,-1.0740,-0.2390,-0.7680,33760,31679,3,9
70146,8.9880,-3.4250,1.8260,-1.0330,-0.2960,-0.6670,33761,31686,6,36
70166,9.4480,-3.3040,2.1870,-0.8740,-0.3650,-0.5270,33762,31694,5,25
70186,10.0920,-3.1630,2.2910,-0.5890,-0.4270,-0.4130,33765,31716,8,64
70206,10.7910,-3.1380,2.4700,-0.2420,-0.4510,-0.2990,33763,31748,7,49
70226,11.7090,-3.4060,2.4910,0.0600,-0.4320,-0.1930,33771,31773,0,0
70246,13.1510,-3.5550,2.5950,0.2570,-0.3940,-0.1150,33776,31790,0,0
70266,14.3290,-3.9170,3.0100,0.3530,-0.3010,-0.0760,33772,31825,0,0
70286,14.0720,-4.5180,2.7900,0.2930,-0.1290,0.0430,33762,31757,6,36
70307,12.5260,-4.4560,2.6650,0.1420,0.0090,0.4150,33744,31689,1,1
70327,10.8150,-4.0810,2.4170,0.1170,0.1330,0.9210,33733,31616,-4,16
70347,9.8230,-3.6150,2.3690,0.3000,0.2400,1.4500,33724,31555,4,16
70367,9.5460,-3.7310,2.4460,0.6410,0.3650,1.8970,33720,31530,10,100
70387,9.6390,-3.5770,2.2650,1.0790,0.4520,2.0790,33719,31504,11,121
70407,10.0940,-3.6000,2.0290,1.4890,0.5560,2.2060,33714,31474,16,256
70427,10.5660,-3.7150,1.8350,1.8560,0.6460,2.2710,33716,31443,4,16
70447,11.4080,-3.8880,1.7510,2.1090,0.7780,2.3090,33710,31412,25,625
70467,11.5230,-4.0930,1.4620,2.1360,0.9330,2.3110,33711,31395,1,1
70487,11.2180,-4.2590,0.9250,1.6900,1.1630,2.3460,33698,31376,5,25
70508,10.8710,-4.0490,0.6920,1.2440,1.2620,2.3880,33694,31343,2,4
70528,10.5370,-3.7970,0.5950,0.8280,1.2870,2.4510,33683,31311,13,169
70548,10.1440,-3.3080,0.5870,0.5780,1.2550,2.4410,33674,31266,-18,324
70568,9.7180,-2.7760,0.5830,0.5470,1.1990,2.3450,33660,31225,27,729
70588,9.2620,-2.4360,0.3590,0.6310,1.1140,2.2070,33649,31204,3,9
70608,8.8590,-2.1550,0.1300,0.7070,1.0070,2.0420,33647,31190,7,49
70628,8.6000,-1.9540,0.0570,0.7420,0.8840,1.8410,33644,31197,5,25
70648,8.4690,-1.7180,-0.0650,0.7330,0.7440,1.5910,33642,31204,4,16
70668,8.2320,-1.5170,-0.2550,0.6960,0.5840,1.2990,33644,31218,8,64
70688,8.5370,-1.2870,-0.2830,0.6100,0.3200,0.7480,33645,31228,7,49
70709,9.0420,-1.2750,-0.2720,0.5470,0.1550,0.3290,33644,31231,5,25
70729,9.7070,-1.3740,-0.3040,0.4460,-0.0150,-0.1250,33641,31222,1,1
70749,10.4900,-1.6040,-0.4140,0.2560,-0.1830,-0.5760,33638,31218,4,16
70769,11.5390,-1.7900,-0.5180,-0.0350,-0.3420,-1.0310,33632,31214,1,1
70789,12.2300,-2.1810,-0.4600,-0.3980,-0.4860,-1.5150,33624,31223,-13,169
70809,12.5370,-2.4150,-0.2500,-0.7280,-0.6270,-1.9340,33608,31236,-8,64
70829,12.1750,-2.6890,0.1630,-1.0310,-0.7630,-2.1870,33608,31243,6,36
70849,11.4530,-2.5820,0.6300,-1.2160,-0.8870,-2.2670,33602,31238,-5,25
70869,10.7670,-2.4880,1.0850,-1.2560,-0.9580,-2.1890,33600,31259,16,256
70889,10.1300,-2.2700,1.6630,-1.0940,-0.9410,-1.8630,33598,31297,8,64
70910,10.2690,-2.1380,1.7760,-0.9010,-0.8840,-1.6860,33598,31327,-6,36
70930,10.3620,-2.1280,1.9360,-0.7440,-0.7810,-1.5820,33607,31370,13,169
70950,10.1800,-2.5210,2.0210,-0.7220,-0.6770,-1.5390,33613,31420,10,100
70970,9.5490,-2.7750,1.9990,-0.8860,-0.6070,-1.5110,33623,31449,7,49
70990,8.7340,-2.7750,1.9190,-1.1540,-0.5630,-1.4370,33625,31460,9,81
71010,8.1340,-2.6980,1.8710,-1.3700,-0.5360,-1.3420,33627,31472,23,529
71030,7.8050,-2.7200,1.8580,-1.5120,-0.5160,-1.2520,33627,31479,-4,16
71050,7.7380,-2.6250,1.8610,-1.5490,-0.4850,-1.2090,33635,31495,-15,225
71070,7.8110,-2.6010,1.9250,-1.4580,-0.4500,-1.2310,33637,31512,5,25
71090,8.2050,-2.7070,1.9110,-1.1670,-0.4110,-1.3450,33644,31537,0,0
71111,8.6290,-2.8740,1.9320,-0.9880,-0.3940,-1.4280,33653,31558,3,9
71131,9.1310,-3.2410,1.9500,-0.9230,-0.3820,-1.4800,33658,31586,1,1
71151,9.4830,-3.4880,1.9390,-0.9860,-0.3820,-1.5070,33657,31606,-1,1
71171,9.6140,-3.7040,1.9960,-1.1220,-0.3770,-1.4620,33661,31632,0,0
71191,9.8380,-3.8280,2.0880,-1.2520,-0.3640,-1.3360,33668,31663,0,0
71211,10.4240,-3.7910,2.2270,-1.2840,-0.3670,-1.1620,33664,31694,2,4
71231,11.0300,-3.8870,2.3340,-1.1750,-0.3730,-0.9920,33668,31716,16,256
71251,11.5860,-3.9040,2.5100,-0.9030,-0.3810,-0.8420,33670,31713,8,64
71271,12.1240,-3.9730,2.5990,-0.4930,-0.3960,-0.6710,33669,31674,5,25
71291,14.0060,-4.2870,2.8630,0.1390,-0.3730,-0.3530,33656,31633,7,49
71312,14.2120,-4.7810,2.7170,0.4140,-0.3070,-0.2040,33645,31625,22,484
71332,13.5310,-4.9690,2.6250,0.4750,-0.2020,0.0390,33641,31614,6,36
71352,11.8470,-4.8450,2.7030,0.4070,-0.0780,0.4440,33634,31610,-2,4
71372,10.3800,-4.5030,2.4970,0.4270,0.0380,0.8610,33628,31599,14,196
71392,9.6130,-4.0960,2.4300,0.5760,0.1870,1.2860,33624,31583,1,1
71412,9.5220,-3.9370,2.4330,0.9520,0.3280,1.6130,33624,31582,3,9
71432,10.0250,-3.7950,2.2590,1.4230,0.4630,1.8330,33631,31571,4,16
71452,10.9340,-3.8040,1.9660,1.8120,0.6220,2.0420,33634,31562,-2,4
71472,11.8630,-4.0390,1.1550,1.9170,0.9130,2.3200,33643,31536,3,9
71494,12.0310,-4.0350,0.6560,1.6330,1.1100,2.5070,33648,31518,9,81
71514,12.1750,-3.8630,0.4050,1.2210,1.2550,2.6950,33644,31489,0,0
71534,11.9930,-3.5610,0.2810,0.8130,1.3350,2.8470,33636,31465,17,289
71554,11.4680,-3.1530,0.1440,0.5160,1.3450,2.9330,33628,31437,20,400
71574,10.8960,-2.6680,0.1600,0.4350,1.3030,2.9300,33609,31398,5,25
71594,10.2990,-2.1570,0.2430,0.5520,1.2280,2.8520,33601,31365,3,9
71614,9.7120,-1.9070,-0.0070,0.7940,1.1390,2.6900,33597,31335,7,49
71634,9.1290,-1.7750,-0.1640,1.0190,1.0580,2.4510,33593,31316,2,4
71654,8.5570,-1.7810,-0.4940,1.1390,0.9290,2.0380,33598,31293,0,0
71675,8.1210,-1.8030,-0.6720,1.0410,0.8110,1.7250,33599,31279,0,0
71695,7.7520,-1.6930,-0.6700,0.8230,0.6620,1.4270,33597,31267,-1,1
71715,7.6730,-1.5540,-0.6850,0.5970,0.4710,1.1150,33602,31264,3,9
71735,7.8920,-1.3370,-0.6560,0.4320,0.2740,0.7600,33596,31254,1,1
71755,8.4950,-1.1110,-0.4570,0.4050,0.0820,0.2970,33592,31243,0,0
71775,9.1730,-1.3420,-0.3220,0.4270,-0.0900,-0.2080,33585,31229,4,16
71795,9.9120,-1.6280,-0.3050,0.3740,-0.2630,-0.7320,33577,31210,1,1
71815,10.9560,-1.9090,-0.3160,0.1890,-0.4390,-1.2070,33571,31207,4,16
71835,11.7710,-2.2690,-0.4060,-0.1450,-0.5840,-1.6470,33562,31225,6,36
71855,12.4020,-2.8070,-0.1660,-0.7350,-0.8110,-2.2090,33568,31270,4,16
71876,11.7480,-2.8800,0.4190,-1.1190,-0.9570,-2.4060,33566,31293,3,9
71896,11.0640,-2.6830,1.0070,-1.3340,-1.0980,-2.4080,33568,31310,5,25
71916,10.5210,-2.4220,1.5180,-1.3380,-1.1900,-2.2610,33569,31321,2,4
71936,10.4280,-2.0600,1.9300,-1.1480,-1.1970,-2.0650,33566,31357,6,36
71956,10.7630,-2.0330,2.3010,-0.8130,-1.1340,-1.9690,33576,31404,1,1
71976,10.9140,-2.1730,2.4800,-0.4800,-1.0120,-1.9590,33578,31459,2,4
71996,10.5670,-2.5950,2.3710,-0.3550,-0.8780,-1.9490,33593,31504,1,1
72016,9.8250,-3.0130,2.1370,-0.5240,-0.7660,-1.8840,33605,31527,-5,25
72036,9.0360,-3.2420,2.0670,-0.9280,-0.6770,-1.7180,33614,31537,-10,100
72056,8.3930,-3.1040,2.2780,-1.4100,-0.5790,-1.4370,33609,31536,-1,1
72077,8.2700,-3.0130,2.3320,-1.5530,-0.4960,-1.2570,33611,31541,4,16
72097,8.1530,-2.9260,2.2000,-1.5490,-0.4200,-1.1310,33613,31541,6,36
72117,8.1190,-2.8870,2.1200,-1.4230,-0.3400,-1.0510,33614,31543,-3,9
72137,8.2820,-2.9420,1.9960,-1.2640,-0.2900,-1.0110,33620,31551,1,1
72157,8.6540,-3.0720,2.0210,-1.1070,-0.2830,-1.0170,33623,31563,-20,400
72177,9.1030,-3.2390,2.1610,-1.0010,-0.2950,-1.0380,33632,31573,6,36
72197,9.2030,-3.3780,2.1130,-0.9740,-0.3090,-1.0510,33632,31576,0,0
72217,9.1960,-3.4700,2.1790,-1.0000,-0.2960,-0.9950,33636,31586,0,0
72237,9.5980,-3.4550,2.2970,-0.9970,-0.2860,-0.8870,33635,31608,-1,1
72257,10.6400,-3.4600,2.3130,-0.7800,-0.3090,-0.7560,33639,31643,3,9
72278,11.4830,-3.4050,2.5750,-0.4710,-0.3360,-0.6880,33646,31655,5,25
72298,12.4940,-3.5750,2.6010,-0.0950,-0.3610,-0.5860,33648,31650,-3,9
72318,14.0980,-3.9350,2.6770,0.2010,-0.3390,-0.4580,33646,31644,-23,529
72338,14.8000,-4.4420,2.6790,0.3180,-0.2610,-0.3590,33640,31641,6,36
72358,14.1640,-4.6480,2.2490,0.2460,-0.1650,-0.1830,33634,31611,0,0
72378,12.6250,-4.6230,2.3580,0.0240,-0.0340,0.2450,33631,31599,-10,100
72398,10.8070,-4.1370,2.3850,-0.0440,0.0610,0.6820,33622,31592,14,196
72418,9.6750,-3.5970,2.3300,0.0940,0.1560,1.0930,33621,31591,-12,144
72438,9.1950,-3.1020,2.3180,0.4300,0.2520,1.3860,33620,31599,10,100
72458,8.9600,-2.7720,1.8260,1.0860,0.4030,1.5820,33625,31609,1,1
72479,9.2580,-2.7660,1.5080,1.4560,0.5050,1.6010,33633,31614,3,9
72499,9.7600,-3.0670,1.2630,1.6990,0.6140,1.6010,33642,31609,3,9
72519,10.5600,-3.5550,1.1060,1.7800,0.7550,1.6040,33643,31593,1,1
72539,11.0650,-3.8310,0.7780,1.6380,0.8990,1.6570,33650,31579,26,676
72559,11.1650,-4.0210,0.3950,1.2960,1.0260,1.8120,33648,31566,20,400
72579,11.1290,-4.0640,0.1360,0.8000,1.1270,2.0120,33650,31563,10,100
72599,10.9930,-3.8190,0.1380,0.2700,1.1760,2.1950,33648,31562,24,576
72619,10.9730,-3.3450,0.3460,-0.0670,1.1820,2.2990,33646,31553,-12,144
72639,10.8800,-2.8540,0.3220,-0.1690,1.1510,2.3110,33642,31546,6,36
72659,10.2260,-2.4030,-0.1450,-0.1540,1.0650,2.2700,33636,31518,8,64
72680,9.7470,-2.0760,-0.2380,-0.1160,0.9660,2.2270,33631,31496,3,9
72700,9.3950,-1.6760,-0.2180,-0.0100,0.8230,2.1400,33624,31478,-8,64
72720,9.0720,-1.3910,-0.1540,0.1720,0.6670,1.9960,33629,31472,7,49
72740,8.9940,-1.8600,-0.3300,0.3830,0.5290,1.8290,33625,31485,-1,1
72760,9.2970,-3.2110,-0.4290,0.5100,0.4240,1.7340,33632,31526,13,169
72780,9.6970,-4.9030,-0.2910,0.2880,0.2870,1.7740,33637,31569,-18,324
72800,10.3300,-7.3080,0.3160,-0.4860,0.2560,2.0390,33646,31619,12,144
72820,10.7120,-9.1140,0.7090,-1.7800,0.2940,2.2610,33642,31617,0,0
72840,10.7980,-9.4080,1.0030,-3.0610,0.3540,2.2990,33636,31591,4,16
72860,9.8500,-9.7280,0.9770,-4.2500,0.4430,2.3440,33623,31630,-4,16
72881,8.9830,-10.3230,1.0620,-4.2640,0.5280,2.2350,33618,31672,8,64
72901,7.6150,-10.4090,0.9830,-3.9350,0.5790,2.0710,33623,31658,3,9
72921,6.2080,-9.4950,0.9230,-3.2750,0.5200,2.0280,33640,31615,2,4
72941,5.3260,-8.6450,1.0790,-2.3500,0.3120,2.0720,33653,31561,4,16
72961,4.7330,-7.7430,1.2900,-1.3670,0.0990,2.1320,33666,31525,6,36
72981,4.3920,-7.2050,0.8280,-0.4800,-0.1080,2.0910,33670,31506,3,9
73001,4.2930,-6.8960,0.6740,0.1760,-0.2300,1.9500,33683,31486,4,16
73021,4.1120,-6.8630,0.4930,0.4470,-0.3240,1.7570,33693,31457,0,0
73041,3.7220,-6.6950,0.4240,0.4640,-0.3550,1.5540,33702,31403,6,36
73061,2.9320,-6.1110,0.9160,0.4900,-0.2910,1.2270,33701,31323,8,64
73082,2.3750,-5.6750,1.1660,0.6110,-0.2180,1.0340,33695,31265,4,16
73102,1.9920,-5.4900,1.2750,0.7480,-0.1260,0.9030,33685,31214,3,9
73122,1.7670,-5.7110,1.1320,0.8270,-0.0280,0.8050,33685,31174,3,9
73142,1.6080,-5.8220,1.0810,0.8500,0.0630,0.6500,33688,31128,0,0
73162,1.6040,-5.8160,1.0120,0.9050,0.1070,0.4630,33697,31085,5,25
73182,1.6660,-5.6000,1.3130,1.1610,0.1360,0.2660,33702,31052,5,25
73202,1.8720,-5.8660,1.6030,1.5720,0.1390,0.0750,33708,31032,3,9
73222,2.1070,-6.9740,1.7810,1.9250,0.1590,-0.0600,33709,31019,4,16
73242,2.0760,-7.8920,2.0790,2.0460,0.1840,-0.1570,33711,31009,6,36
73262,1.7900,-9.4950,2.3090,1.6710,0.1800,-0.1290,33715,31010,3,9
73283,1.7000,-10.0150,2.5560,1.2550,0.1650,-0.1220,33713,31000,1,1
73303,1.6140,-10.3200,3.0870,1.0120,0.1740,-0.1010,33702,30968,7,49
73323,1.7060,-10.2830,3.8770,1.2740,0.2010,-0.1900,33686,30915,0,0
73343,1.9670,-10.9850,4.4780,1.8510,0.2500,-0.3150,33680,30866,1,1
73363,2.2180,-12.1370,4.8940,2.1610,0.2490,-0.4200,33688,30832,4,16
73383,2.5380,-13.1760,5.1490,1.7490,0.2000,-0.3690,33700,30820,6,36
73403,2.2120,-12.9740,5.0360,0.9350,0.0720,-0.3330,33717,30812,5,25
73423,1.9330,-11.7970,5.0640,0.3130,-0.0130,-0.3460,33731,30799,14,196
73443,1.5310,-10.2530,4.9010,0.1590,-0.0430,-0.3300,33736,30788,6,36
73463,1.2390,-8.4260,4.3340,0.4150,-0.1170,-0.2270,33751,30775,10,100
73484,1.2190,-7.5820,3.6140,0.5460,-0.2290,-0.1310,33775,30775,-19,361
73504,1.2530,-7.1450,2.9600,0.5180,-0.3920,-0.0730,33796,30769,34,1156
73524,1.5470,-6.5670,2.4660,0.3440,-0.6130,-0.0780,33810,30768,4,16
73544,1.8790,-5.8310,2.3120,0.1850,-0.8410,-0.1630,33827,30767,2,4
73564,2.2910,-5.0900,2.5290,0.1450,-1.0260,-0.3050,33833,30767,28,784
73584,3.2880,-5.4530,3.3670,0.3550,-1.0450,-0.4180,33814,30765,6,36
73604,3.6030,-5.2650,3.3810,0.7440,-1.0240,-0.7080,33792,30765,4,16
73624,3.3770,-4.7580,3.0450,1.1330,-0.9820,-1.0080,33796,30766,4,16
73644,3.6360,-5.0550,3.4640,1.1280,-0.9050,-1.1160,33789,30764,1,1
73666,4.4930,-5.9640,3.9090,0.8140,-0.8550,-1.1930,33770,30762,0,0
73686,4.9330,-6.4000,3.9230,0.4660,-0.8160,-1.3500,33758,30760,0,0
73706,4.8050,-6.2200,3.5030,0.2310,-0.8110,-1.4260,33766,30758,0,0
73726,4.9610,-6.2920,3.3590,0.0740,-0.7550,-1.3140,33758,30749,3,9
73746,5.2590,-6.2560,3.5270,-0.0520,-0.7160,-1.2460,33743,30746,2,4
73766,5.9530,-6.5180,3.6820,-0.1300,-0.6960,-1.2290,33719,30741,-9,81
73786,6.1570,-6.9960,3.6980,-0.1420,-0.6860,-1.2760,33705,30743,-4,16
73806,5.9330,-6.8760,3.7290,-0.1640,-0.6800,-1.2810,33707,30741,8,64
73826,6.7480,-7.7790,3.9150,-0.4490,-0.6390,-1.0790,33685,30731,13,169
73847,7.7990,-9.6830,4.0580,-0.9710,-0.5710,-0.9440,33654,30736,2,4
73867,8.5150,-11.5820,4.0400,-1.8830,-0.4480,-0.8080,33649,30750,2,4
73887,9.2740,-13.1570,4.1350,-2.8600,-0.2750,-0.5970,33671,30767,15,225
73907,9.6380,-13.4780,4.3290,-3.4200,-0.0380,-0.4010,33710,30770,-12,144
73927,9.5740,-12.7890,4.7440,-3.1810,0.2580,-0.1750,33751,30771,10,100
73947,9.1970,-12.0680,4.6840,-2.4170,0.4570,-0.0060,33790,30774,6,36
73967,7.9040,-11.1770,4.2150,-1.5790,0.5680,0.1170,33834,30770,4,16
73987,6.5300,-10.6670,3.6430,-0.9480,0.6220,0.2930,33876,30771,6,36
74007,5.4050,-9.1950,3.4640,-0.5950,0.6770,0.5160,33917,30759,1,1
74027,4.9550,-7.0140,3.4260,-0.1080,0.6950,0.8220,33988,30737,3,9
74048,5.1100,-5.3290,3.5910,0.3360,0.6570,0.8460,34041,30724,7,49
74068,5.6830,-4.5840,3.6620,0.7870,0.5500,0.8070,34082,30715,3,9
74088,5.7520,-4.5020,3.5610,1.2510,0.5140,0.6070,34099,30708,6,36
74108,5.5490,-4.6690,3.3380,1.5940,0.5680,0.3420,34113,30708,8,64
74128,5.1810,-4.5550,3.4460,1.6610,0.6780,0.1610,34127,30706,3,9
74148,5.0660,-4.4290,3.5840,1.6980,0.7740,0.0940,34137,30705,3,9
74168,4.7690,-3.7940,3.8430,1.8670,0.8900,-0.0410,34152,30714,-3,9
74188,4.2880,-4.2110,3.6270,1.7380,0.8620,-0.0130,34175,30720,11,121
74208,4.0760,-5.2270,3.4180,1.0940,0.7520,0.0700,34191,30728,6,36
74228,3.8200,-5.2230,3.8270,0.1830,0.5910,-0.0890,34200,30727,2,4
74249,3.6250,-4.8760,4.2500,-0.0550,0.5200,-0.2270,34195,30719,1,1
74269,3.3540,-4.6040,4.6100,0.0310,0.4800,-0.3630,34193,30721,3,9
74289,3.3820,-5.2940,4.8730,0.1590,0.4330,-0.3600,34191,30717,3,9
74309,3.4920,-6.0970,4.9780,0.1360,0.4070,-0.3310,34192,30722,1,1
74329,3.5410,-6.6280,5.1630,-0.0020,0.3640,-0.3300,34193,30721,0,0
74349,3.7800,-7.1840,5.3620,-0.2150,0.2940,-0.2940,34190,30718,-14,196
74369,4.2490,-7.8570,5.5620,-0.5190,0.1810,-0.2060,34190,30714,7,49
74389,4.7370,-8.3090,5.7190,-0.7930,0.0590,-0.1100,34189,30712,3,9
74409,5.4240,-8.7580,5.9140,-0.8860,-0.0390,-0.0270,34190,30712,-10,100
74429,6.6750,-9.5010,6.1880,-0.7630,-0.2150,-0.0150,34191,30712,0,0
74450,7.0460,-10.0460,6.1730,-0.6840,-0.3460,-0.0700,34186,30707,8,64
74470,7.0920,-10.7020,6.0570,-0.7630,-0.4590,-0.0580,34179,30703,9,81
74490,6.4280,-10.5150,5.4170,-1.1300,-0.5650,0.1370,34173,30699,-13,169
74510,5.6460,-10.1450,4.5080,-1.7100,-0.6630,0.4760,34159,30698,7,49
74530,5.2230,-9.7040,3.7780,-2.3580,-0.7620,0.7620,34146,30692,-12,144
74550,4.8030,-8.7690,3.0300,-2.8460,-0.8260,0.8240,34137,30688,26,676
74570,4.7410,-8.6970,2.5580,-3.2810,-0.8710,0.9260,34126,30681,23,529
74590,4.9380,-9.2420,2.0480,-3.8800,-0.9110,1.1060,34098,30659,18,324
74610,4.9600,-8.4840,1.5740,-4.3090,-0.8670,1.0570,34073,30663,-27,729
74630,4.7390,-6.3060,1.2890,-3.3680,-0.6580,0.6620,34029,30651,8,64
74651,4.7490,-6.2550,0.9060,-2.4530,-0.5280,0.4930,34014,30654,3,9
74671,4.5000,-6.1580,0.5040,-1.7490,-0.3950,0.3550,34006,30666,6,36
74691,4.1850,-5.7210,0.2450,-1.1490,-0.2870,0.1860,33991,30672,0,0
74711,3.9790,-5.2970,0.2060,-0.5070,-0.1870,-0.0380,33983,30672,5,25
74731,3.8980,-5.0730,0.0250,0.0630,-0.1220,-0.2970,33980,30683,5,25
74751,3.9650,-4.9020,-0.0990,0.5190,-0.0660,-0.5600,33979,30689,7,49
74771,4.2940,-4.5420,0.0470,0.9750,-0.0160,-0.8390,33974,30686,4,16
74791,4.8200,-4.0890,0.4330,1.5560,0.0210,-1.1650,33972,30683,6,36
74811,5.3510,-3.8830,0.7590,2.1660,0.0220,-1.5110,33958,30674,5,25
74831,6.3230,-4.4540,0.6380,2.7380,-0.0510,-1.9400,33917,30667,2,4
74852,7.2680,-4.6540,0.4000,2.8490,-0.1470,-2.2260,33883,30658,1,1
74872,8.6180,-4.7050,0.4060,2.8580,-0.2500,-2.5150,33852,30651,5,25
74892,9.9850,-4.8400,0.3580,2.8060,-0.3650,-2.8310,33803,30648,4,16
74912,11.4970,-4.9440,0.6200,2.6910,-0.4660,-3.1810,33753,30641,6,36
74932,13.2820,-4.5770,0.7610,2.5340,-0.6180,-3.5160,33668,30637,3,9
74952,14.8270,-4.5970,0.2360,2.1920,-0.7920,-3.7990,33590,30640,2,4
74972,15.9530,-5.1650,-0.2130,1.5950,-0.9070,-4.0660,33482,30660,3,9
74992,15.7130,-6.0050,0.2870,0.7600,-0.9260,-4.2050,33439,30677,4,16
75012,14.0700,-5.9330,1.1770,-0.1220,-0.8940,-3.9800,33455,30689,2,4
75032,11.6810,-4.3800,2.0240,-0.8650,-0.8370,-3.0210,33507,30693,0,0
75053,11.2790,-3.3120,2.4380,-0.8160,-0.7800,-2.2730,33543,30693,12,144
75073,11.3260,-3.3570,2.5910,-0.5590,-0.6900,-1.7110,33551,30695,3,9
75093,10.7140,-3.8610,2.2190,-0.4200,-0.5340,-1.4110,33530,30699,3,9
75113,9.5370,-4.1200,1.7310,-0.5660,-0.3720,-1.2410,33527,30706,7,49
75133,8.5170,-4.1520,1.6390,-0.9820,-0.2660,-1.0190,33531,30712,4,16
75153,7.8520,-3.9320,1.9180,-1.4390,-0.2330,-0.7530,33536,30711,-18,324
75173,7.3650,-3.4540,2.1670,-1.7320,-0.1960,-0.5120,33538,30716,14,196
75193,7.0570,-3.0870,2.2130,-1.7250,-0.1390,-0.3740,33542,30714,9,81
75213,6.9280,-2.8790,2.2170,-1.4990,-0.0760,-0.3280,33545,30716,9,81
75233,7.1380,-2.9570,2.2370,-1.1240,-0.0100,-0.3000,33546,30721,12,144
75254,7.2820,-3.1790,2.1670,-1.0210,-0.0130,-0.3020,33545,30726,7,49
75274,7.6640,-3.2930,2.3140,-1.0090,-0.0250,-0.2890,33539,30725,5,25
75294,8.0460,-3.2240,2.5180,-0.9580,-0.0420,-0.2870,33537,30727,9,81
75314,8.2480,-3.2030,2.5070,-0.8450,-0.0500,-0.2710,33545,30724,6,36
75334,8.5750,-3.2320,2.5820,-0.7330,-0.0510,-0.1940,33553,30723,6,36
75354,8.9890,-3.1740,2.6820,-0.6330,-0.0810,-0.0860,33546,30716,4,16
75374,9.4010,-2.9710,2.6890,-0.4390,-0.1280,-0.0060,33536,30716,-1,1
75394,10.2150,-2.9900,2.8230,-0.1610,-0.1720,0.0420,33526,30716,7,49
75414,11.0300,-3.1850,2.8810,0.1010,-0.2150,0.0480,33514,30716,8,64
75434,11.9550,-3.5160,2.6520,0.4010,-0.2610,0.0460,33518,30719,0,0
75455,13.0600,-3.7170,2.6320,0.4970,-0.2800,0.1390,33520,30725,1,1
75475,13.4510,-4.1960,2.6700,0.4620,-0.2790,0.2140,33504,30722,2,4
75495,12.9960,-4.4290,2.4430,0.3780,-0.2830,0.2580,33495,30724,-1,1
75515,12.0020,-4.3890,2.3870,0.2970,-0.2490,0.4020,33488,30719,1,1
75535,10.5210,-4.2460,2.2370,0.3850,-0.2020,0.5900,33480,30719,-3,9
75555,9.5420,-4.0380,1.9850,0.6210,-0.1420,0.7910,33484,30721,11,121
75575,9.0790,-3.9100,1.9630,0.9050,-0.0720,1.0510,33495,30717,1,1
75595,9.0270,-3.9240,1.8280,1.2570,-0.0140,1.2190,33509,30722,11,121
75615,9.3070,-3.8890,1.5810,1.6130,0.0620,1.3310,33520,30719,7,49
75635,10.2480,-4.1770,1.1720,1.9760,0.2260,1.4550,33537,30719,20,400
75656,10.6090,-4.4410,0.8140,1.9870,0.3640,1.5100,33539,30720,6,36
75676,10.8550,-4.6030,0.5470,1.8230,0.5020,1.5870,33543,30721,4,16
75696,11.0230,-4.6300,0.4530,1.5130,0.6160,1.6630,33550,30719,-5,25
75716,11.0090,-4.5010,0.3580,1.1310,0.7050,1.7380,33552,30714,11,121
75736,10.7190,-4.1720,0.2130,0.7320,0.7650,1.7980,33552,30715,10,100
75756,10.3840,-3.7210,0.2170,0.4360,0.7980,1.8590,33543,30715,4,16
75776,10.0220,-3.3120,0.2790,0.3070,0.7940,1.8770,33541,30715,3,9
75796,9.6020,-2.8670,0.3710,0.3070,0.7670,1.8740,33539,30710,12,144
75816,9.2200,-2.5250,0.3630,0.3980,0.7100,1.8410,33532,30709,10,100
75836,8.7900,-2.2100,0.3160,0.5580,0.6090,1.6690,33530,30701,11,121
75857,8.4710,-2.1020,0.2420,0.6110,0.5310,1.5050,33525,30698,5,25
75877,8.4120,-1.9580,0.3590,0.6240,0.4490,1.3170,33522,30692,2,4
75897,8.4220,-1.8410,0.4630,0.6180,0.3720,1.1050,33511,30687,5,25
75917,8.5320,-1.7560,0.4320,0.6140,0.2890,0.8720,33504,30690,2,4
75937,8.8620,-1.7260,0.3400,0.5930,0.1950,0.6110,33500,30693,1,1
75957,9.5310,-1.9090,0.3810,0.5420,0.0900,0.3090,33490,30694,-5,25
75977,10.0440,-2.1800,0.3910,0.4620,-0.0250,-0.0560,33486,30699,0,0
75997,10.2950,-2.5750,0.3350,0.3360,-0.1450,-0.4270,33477,30699,5,25
76017,10.8430,-2.7570,0.1420,0.1370,-0.2650,-0.7260,33470,30703,2,4
76037,11.4590,-3.1960,0.1960,-0.3950,-0.4240,-1.1230,33461,30706,3,9
76058,11.5320,-3.4140,0.4660,-0.7240,-0.5110,-1.4050,33453,30702,5,25
76078,10.8900,-3.5790,0.8600,-0.9300,-0.5830,-1.6110,33443,30701,-9,81
76098,10.2200,-3.5430,1.1340,-0.9830,-0.6610,-1.6850,33439,30699,6,36
76118,9.6320,-3.3970,1.4010,-0.9070,-0.7140,-1.6450,33430,30692,0,0
76138,9.2680,-3.3850,1.5900,-0.7600,-0.7040,-1.5020,33423,30690,13,169
76158,9.4150,-3.3810,1.7820,-0.6120,-0.6660,-1.3670,33413,30689,-8,64
76178,9.6500,-3.2390,1.8900,-0.5440,-0.6060,-1.2490,33415,30696,14,196
76198,9.7590,-3.3460,1.8990,-0.5750,-0.5420,-1.1910,33410,30696,6,36
76218,9.1850,-3.5700,1.8720,-0.9090,-0.4260,-1.1440,33402,30701,2,4
76240,8.5530,-3.4230,1.8200,-1.2400,-0.3610,-1.0470,33408,30703,-24,576
76260,7.9700,-3.2410,1.8460,-1.5140,-0.2940,-0.9220,33412,30705,14,196
76280,7.6970,-3.0130,1.7990,-1.6660,-0.2470,-0.8410,33412,30705,7,49
76300,7.5740,-2.9080,1.7660,-1.6930,-0.2120,-0.8140,33411,30706,1,1
76320,7.6460,-2.8590,1.7570,-1.5610,-0.1980,-0.8590,33417,30703,4,16
76340,7.7810,-2.9290,1.7610,-1.2840,-0.1940,-0.9440,33427,30703,4,16
76360,8.0640,-3.1330,1.8000,-0.9750,-0.2050,-1.0050,33444,30704,5,25
76380,8.3070,-3.6270,1.7300,-0.7380,-0.2170,-1.0530,33453,30701,3,9
76400,8.7800,-4.2390,1.7490,-0.7000,-0.2270,-1.0740,33461,30703,5,25
76421,9.1840,-4.5350,1.8720,-0.7470,-0.2350,-1.0620,33464,30698,5,25
76441,9.6070,-4.7390,1.9940,-0.7600,-0.2420,-1.0160,33460,30701,-11,121
76461,10.1070,-4.9970,2.1210,-0.7650,-0.2540,-0.9180,33462,30707,14,196
76481,10.5240,-5.1760,2.1690,-0.7550,-0.2700,-0.8350,33454,30703,4,16
76501,10.9000,-5.2700,2.3950,-0.6980,-0.2740,-0.7290,33451,30703,5,25
76521,11.6710,-5.2300,2.4790,-0.5270,-0.2960,-0.6010,33445,30701,3,9
76541,12.9380,-5.1940,2.6470,-0.2670,-0.3040,-0.4850,33446,30704,1,1
76561,13.7040,-5.4240,2.7030,0.0380,-0.2670,-0.4460,33447,30705,6,36
76581,13.5500,-5.7040,2.4850,0.2250,-0.1960,-0.3750,33448,30709,2,4
76601,11.5650,-5.7250,2.1630,0.1390,-0.0280,0.0340,33456,30703,5,25
76622,10.3390,-5.1990,1.9450,0.0320,0.0800,0.4470,33468,30703,3,9
76642,9.6940,-4.6100,1.8110,0.0150,0.1790,0.8840,33473,30699,-5,25
76662,9.3450,-4.1190,1.3750,0.1640,0.2300,1.1560,33479,30702,9,81
76682,9.1870,-3.6360,0.9110,0.4030,0.2580,1.3520,33494,30707,6,36
76702,9.3000,-3.3220,0.6050,0.7060,0.2660,1.4860,33519,30702,-14,196
76722,9.5230,-3.1850,0.3200,1.0190,0.2810,1.5410,33533,30701,13,169
76742,9.6750,-3.1050,0.0120,1.2570,0.3100,1.5350,33550,30698,4,16
76762,9.7410,-3.1760,-0.0690,1.3230,0.3480,1.5260,33561,30698,4,16
76782,9.4500,-3.1650,-0.1680,1.2050,0.3770,1.4980,33565,30702,5,25
76802,8.9230,-2.9380,0.0500,0.9230,0.4350,1.4700,33564,30696,7,49
76823,8.7450,-2.7200,0.2040,0.7830,0.4650,1.4300,33559,30692,-19,361
76843,8.9030,-2.4600,0.4910,0.7220,0.4980,1.3580,33560,30698,4,16
76863,8.7750,-2.3440,0.4600,0.7050,0.5210,1.2640,33562,30697,14,196
76883,8.6870,-2.3310,0.3580,0.6550,0.5480,1.1760,33568,30694,-2,4
76903,8.6710,-2.3020,0.2080,0.5240,0.5550,1.1020,33575,30689,5,25
76923,8.7800,-2.1640,0.2270,0.3650,0.5240,1.0040,33570,30682,1,1
76943,9.1180,-1.9810,0.3280,0.2670,0.4800,0.8740,33571,30675,17,289
76963,9.6130,-1.8270,0.3620,0.2520,0.4330,0.6920,33567,30671,5,25
76983,10.0070,-1.7920,0.2450,0.2720,0.3850,0.4740,33559,30677,6,36
77003,10.9800,-1.9390,0.2900,0.3100,0.2950,0.0640,33547,30677,6,36
77024,11.4050,-2.1320,0.3830,0.3290,0.2310,-0.1910,33541,30676,2,4
77044,11.6110,-2.2170,0.4450,0.3140,0.1590,-0.3740,33537,30675,2,4
77064,12.6510,-2.2630,0.4080,0.2550,0.0880,-0.5090,33535,30680,0,0
77084,12.9550,-2.4640,0.4550,0.0910,0.0780,-0.6700,33530,30679,3,9
77104,12.9060,-2.8130,0.3970,-0.1580,0.0580,-0.8550,33516,30679,1,1
77124,12.0720,-3.0750,0.5630,-0.5550,0.0060,-0.9300,33511,30679,3,9
77144,10.8150,-2.9640,0.7790,-0.9330,-0.0680,-0.8490,33500,30673,1,1
77164,9.8710,-2.7100,1.1610,-1.0630,-0.1640,-0.7490,33492,30669,5,25
77184,9.2700,-2.3060,1.6200,-0.9250,-0.2340,-0.6090,33483,30669,5,25
77204,8.9280,-2.0430,2.0210,-0.3350,-0.2760,-0.4580,33480,30665,3,9
77225,8.6800,-2.1550,1.8520,-0.0290,-0.2400,-0.3800,33484,30667,8,64
77245,8.3280,-2.3690,1.6560,0.0590,-0.1900,-0.3380,33487,30670,6,36
77265,7.8130,-2.5460,1.4220,-0.0900,-0.1610,-0.3540,33488,30675,6,36
77285,7.2750,-2.6600,1.2670,-0.3990,-0.1450,-0.3880,33490,30677,6,36
77305,6.8700,-2.6400,1.2450,-0.7120,-0.1380,-0.4580,33490,30677,6,36
77325,6.6010,-2.5790,1.2730,-0.9330,-0.1480,-0.5430,33490,30678,22,484
77345,6.6520,-2.5470,1.3070,-1.0010,-0.1550,-0.6180,33494,30678,3,9
77365,6.9610,-2.5650,1.3380,-0.9080,-0.1720,-0.7270,33498,30679,2,4
77385,7.3390,-2.7030,1.3890,-0.7040,-0.2000,-0.8730,33495,30680,2,4
77405,8.0680,-3.2900,1.4980,-0.4730,-0.2550,-1.0600,33503,30680,5,25
77426,8.4420,-3.7120,1.5160,-0.4740,-0.2940,-1.1470,33509,30678,5,25
77446,8.6980,-3.9490,1.5990,-0.5710,-0.3340,-1.1570,33514,30672,-3,9
77466,9.1570,-4.0790,1.8470,-0.6850,-0.3650,-1.0900,33514,30671,6,36
77486,9.7240,-4.1350,2.1720,-0.7380,-0.3910,-0.9980,33505,30666,7,49
77506,10.2820,-4.1970,2.3190,-0.6900,-0.4040,-0.9230,33491,30666,6,36
77526,10.9990,-4.4400,2.4840,-0.5730,-0.3950,-0.8230,33484,30672,5,25
77546,11.6370,-4.5490,2.4910,-0.4290,-0.3940,-0.7110,33481,30670,5,25
77566,12.6950,-4.6510,2.4000,-0.3350,-0.4010,-0.5570,33488,30671,5,25
77586,13.5720,-4.8950,2.5710,-0.3150,-0.4010,-0.4500,33479,30676,3,9
77606,13.0830,-4.9110,2.6920,-0.1920,-0.4020,-0.4340,33461,30675,5,25
77627,11.7210,-4.8080,2.8680,-0.0420,-0.3270,-0.2600,33458,30674,6,36
77647,10.4170,-4.6850,2.7270,0.1880,-0.2400,-0.0220,33451,30671,-19,361
77667,9.6080,-4.3020,2.6840,0.4280,-0.1250,0.3050,33457,30668,6,36
77687,9.4920,-4.0380,2.6870,0.7300,0.0010,0.5960,33460,30672,9,81
77707,9.5610,-3.8790,2.5040,1.0460,0.1240,0.7080,33468,30678,-1,1
77727,9.6380,-3.8870,2.1320,1.2620,0.2580,0.7820,33477,30677,9,81
77747,9.8080,-4.0830,1.6760,1.2690,0.3740,0.8650,33483,30678,6,36
77767,9.8950,-4.1340,1.3040,1.1190,0.4830,0.9580,33494,30680,10,100
77787,9.8630,-4.0350,1.0690,0.9120,0.5830,1.0610,33500,30675,23,529
77807,9.5520,-3.7710,0.9740,0.6290,0.7050,1.2250,33508,30674,19,361
77828,9.2010,-3.5700,0.7720,0.4710,0.7680,1.3390,33512,30676,-1,1
77848,8.9780,-3.3230,0.5850,0.3310,0.8090,1.4520,33519,30673,8,64
77868,8.9530,-3.0050,0.5300,0.2370,0.8280,1.5330,33525,30669,-3,9
77888,9.1270,-2.7050,0.5810,0.2410,0.8350,1.5510,33532,30674,-19,361
77908,9.0500,-2.5230,0.4800,0.2940,0.8370,1.5050,33541,30672,-12,144
77928,9.0130,-2.4620,0.3850,0.2890,0.8270,1.4520,33540,30671,11,121
77948,9.0000,-2.3810,0.3050,0.1940,0.8010,1.3950,33548,30669,-2,4
77968,9.0450,-2.2010,0.3140,0.0780,0.7620,1.2960,33557,30666,9,81
77988,9.0930,-1.9460,0.2780,-0.0130,0.7120,1.1580,33562,30660,1,1
78008,9.4930,-1.5870,0.1360,-0.0790,0.5990,0.8590,33558,30660,8,64
78029,10.0470,-1.4260,0.0890,-0.0590,0.4830,0.5840,33549,30656,-1,1
78049,10.7540,-1.3690,0.1440,0.0030,0.3480,0.2290,33549,30657,-16,256
78069,11.3200,-1.4710,0.1720,0.0720,0.1950,-0.1630,33547,30656,14,196
78089,11.7460,-1.6640,0.2500,0.1380,0.0150,-0.5640,33551,30659,4,16
78109,12.2480,-1.8640,0.4000,0.1420,-0.1550,-0.8810,33546,30662,5,25
78129,12.2130,-2.1050,0.6280,0.1370,-0.2850,-1.1590,33537,30663,3,9
78149,11.9390,-2.3830,0.8000,0.1400,-0.4100,-1.3960,33529,30659,5,25
78169,11.1040,-2.7610,1.0160,0.0570,-0.4800,-1.4760,33527,30660,3,9
78189,10.1790,-2.9660,1.2460,-0.0790,-0.5350,-1.4250,33524,30661,2,4
78209,9.0230,-2.8980,1.7540,-0.2250,-0.6000,-1.1980,33537,30652,4,16
78230,8.6010,-2.8080,2.0840,-0.1770,-0.5890,-1.0070,33537,30653,3,9
78250,8.5030,-2.7570,2.1840,-0.0210,-0.5600,-0.8790,33558,30653,3,9
78270,8.6860,-2.8190,2.1720,0.0570,-0.4710,-0.7500,33593,30649,2,4
78290,8.7630,-2.9990,1.9870,-0.0050,-0.4020,-0.6780,33626,30655,1,1
78310,8.6600,-3.1100,1.8020,-0.2150,-0.3380,-0.6480,33659,30655,2,4
78330,8.4020,-3.1540,1.8300,-0.4830,-0.2940,-0.6250,33679,30657,2,4
78350,7.9950,-3.0310,1.8910,-0.6990,-0.2830,-0.5950,33699,30652,6,36
78370,7.7120,-2.9680,1.9680,-0.8020,-0.2560,-0.5510,33706,30650,4,16
78390,7.4540,-2.8830,2.0990,-0.7750,-0.2210,-0.4780,33719,30650,8,64
78410,7.4590,-2.8900,2.2090,-0.8060,-0.1790,-0.3830,33742,30655,2,4
78431,7.6750,-2.9560,2.1730,-0.7410,-0.1720,-0.3640,33768,30653,3,9
78451,8.0240,-3.0630,2.2250,-0.6820,-0.1890,-0.3690,33785,30651,5,25
78471,8.3820,-3.2150,2.2940,-0.6320,-0.2110,-0.4030,33794,30652,4,16
78491,8.5890,-3.3230,2.3640,-0.6040,-0.2120,-0.4300,33801,30645,2,4
78511,8.6870,-3.4840,2.3620,-0.6170,-0.2060,-0.3970,33796,30644,3,9
78531,8.8530,-3.6690,2.3000,-0.6490,-0.1920,-0.3330,33789,30639,2,4
78551,9.1730,-3.6040,2.3790,-0.6300,-0.1790,-0.2860,33777,30638,4,16
78571,9.6250,-3.7130,2.5120,-0.5420,-0.1820,-0.2430,33772,30635,0,0
78591,10.2700,-3.8320,2.7880,-0.3660,-0.2010,-0.2300,33766,30634,-3,9
78611,11.0710,-4.3010,2.7530,-0.1540,-0.2150,-0.2200,33762,30633,7,49
78632,12.1970,-4.3430,2.6800,-0.0320,-0.2060,-0.2190,33770,30624,6,36
78652,13.2540,-4.7850,2.8190,0.0120,-0.1750,-0.2070,33773,30616,1,1
78672,13.3360,-5.1140,2.6200,-0.0110,-0.1290,-0.2410,33784,30609,3,9
78692,12.7520,-5.4910,2.5400,-0.1730,-0.0550,-0.1770,33788,30603,0,0
78712,11.3250,-5.2880,2.5400,-0.4040,0.0360,0.0570,33789,30591,4,16
78732,10.2100,-4.6670,2.4550,-0.4220,0.0710,0.3470,33796,30581,-18,324
78752,9.5500,-4.0700,2.5130,-0.2780,0.1020,0.6930,33818,30574,15,225
78772,9.2850,-3.7950,2.5120,0.1080,0.1160,0.9300,33834,30567,4,16
78792,9.2900,-3.5650,2.4680,0.6300,0.1550,0.9960,33839,30567,-19,361
78812,9.6160,-3.4970,2.4030,1.3400,0.2770,1.0920,33859,30569,2,4
78833,9.7130,-3.7280,2.0090,1.4510,0.3890,1.1700,33870,30565,5,25
78853,9.8640,-3.7340,1.6510,1.2200,0.5270,1.2940,33877,30568,17,289
78873,9.7490,-3.6220,1.3380,0.7880,0.6390,1.4150,33879,30565,7,49
78893,9.5680,-3.3000,1.1790,0.2810,0.7260,1.4870,33890,30566,19,361
78913,9.2490,-2.9980,1.2010,-0.0550,0.7840,1.5410,33895,30568,-3,9
78933,8.9780,-2.3770,1.1190,-0.1680,0.7700,1.5270,33902,30569,2,4
78953,8.5650,-2.1870,0.7590,-0.1290,0.7350,1.4430,33908,30571,-3,9
78973,8.4100,-2.0200,0.6540,-0.0610,0.6900,1.3360,33911,30575,-5,25
78993,8.1730,-1.9090,0.4420,0.0740,0.6210,1.1770,33911,30571,-2,4
79013,8.0000,-1.8660,0.3180,0.3360,0.5090,0.8710,33921,30571,11,121
79034,7.9630,-1.9690,0.1320,0.4460,0.4050,0.6630,33921,30565,2,4
79054,7.9830,-2.0780,0.1540,0.4610,0.2940,0.4600,33917,30566,0,0
79074,8.3030,-2.1330,0.3270,0.4760,0.1910,0.1880,33861,30570,1,1
79094,8.8200,-1.9740,0.3730,0.5470,0.0970,-0.1220,33707,30558,5,25
79114,9.7080,-2.0150,0.5410,0.6910,-0.0140,-0.4580,33535,30582,7,49
79134,10.7090,-2.0220,0.7550,0.9140,-0.1380,-0.8550,33257,30584,6,36
79154,11.2430,-2.3520,0.7160,1.0810,-0.2800,-1.1450,33059,30689,8,64
79174,11.5760,-2.9100,0.7650,1.0530,-0.3630,-1.2780,33094,31104,3,9
79194,12.7360,-2.9390,1.0240,0.8610,-0.4470,-1.4010,33195,31557,4,16
79214,12.8940,-3.5340,0.9230,0.2550,-0.5100,-1.5140,33485,31610,5,25
79235,12.6780,-3.8060,1.2130,-0.4050,-0.5370,-1.5310,33532,31513,0,0
79255,11.4080,-3.7700,1.3400,-1.0690,-0.5530,-1.4040,33567,31273,1,1
79275,10.3090,-3.5210,1.7140,-1.4740,-0.5660,-1.1970,33586,31067,5,25
79295,9.3460,-3.0000,2.3480,-1.4580,-0.5750,-0.9410,33588,30927,6,36
79315,8.9300,-2.2220,2.8630,-1.0800,-0.6070,-0.6520,33585,30844,5,25
79335,9.0510,-1.9920,3.0310,-0.3530,-0.6050,-0.4000,33580,30818,5,25
79355,9.2560,-2.2360,2.7990,0.1980,-0.5140,-0.2480,33578,30812,3,9
79375,9.0820,-2.4350,2.5550,0.4430,-0.3990,-0.2240,33585,30815,8,64
79395,8.3000,-2.8740,2.3280,0.0980,-0.2550,-0.1780,33594,30804,0,0
79417,7.6360,-2.8770,2.3540,-0.4110,-0.1980,-0.1340,33603,30802,4,16
79437,7.0870,-2.5710,2.4250,-0.8400,-0.1520,-0.0980,33599,30798,6,36
79457,6.8670,-2.2360,2.4670,-1.0910,-0.0870,-0.0540,33598,30797,0,0
79477,6.8630,-2.0780,2.4440,-1.1430,-0.0190,-0.0580,33602,30787,6,36
79497,7.0210,-2.0850,2.4790,-1.0610,0.0240,-0.1270,33608,30781,0,0
79517,7.2480,-2.2950,2.4360,-0.9140,0.0240,-0.2380,33613,30767,0,0
79537,7.6220,-2.4820,2.3650,-0.7830,0.0020,-0.3480,33616,30752,1,1
79557,8.0180,-2.7660,2.4170,-0.7160,-0.0260,-0.4330,33616,30746,2,4
79577,8.4200,-3.1400,2.4710,-0.7220,-0.0560,-0.5060,33610,30744,2,4
79598,8.6220,-3.3440,2.5530,-0.7340,-0.0650,-0.4870,33602,30744,5,25
79618,8.9820,-3.5000,2.6550,-0.7210,-0.0760,-0.4240,33598,30753,5,25
79638,9.7500,-3.6140,2.7740,-0.6560,-0.0900,-0.3640,33593,30756,8,64
79658,10.6290,-3.7120,2.8750,-0.5410,-0.1030,-0.3290,33586,30767,20,400
79678,11.4470,-3.8860,2.8460,-0.4230,-0.0970,-0.2930,33589,30768,6,36
79698,12.2820,-4.0090,2.6000,-0.3450,-0.0910,-0.2560,33594,30765,-1,1
79718,13.4210,-4.1040,2.4410,-0.3800,-0.0790,-0.2150,33597,30771,0,0
79738,13.7520,-4.3260,2.4740,-0.4660,-0.0620,-0.2290,33599,30769,4,16
79758,13.3580,-4.4110,2.4800,-0.4990,-0.0780,-0.2880,33602,30766,3,9
79778,11.1590,-4.2880,2.5800,-0.4730,-0.0230,-0.1230,33612,30736,2,4
79799,9.8030,-3.9340,2.4070,-0.3090,0.0030,0.1150,33624,30706,4,16
79819,9.0840,-3.5150,2.3550,-0.0510,0.0730,0.4750,33626,30680,-5,25
79839,9.0250,-3.4180,2.2330,0.2780,0.1540,0.7210,33626,30664,10,100
79859,9.3900,-3.3110,2.1520,0.6620,0.2450,0.7810,33640,30657,7,49
79879,9.9000,-3.5290,1.7120,0.9750,0.3220,0.8200,33644,30649,10,100
79899,11.2100,-5.5220,-1.9750,0.6340,-0.1710,1.1480,33604,30651,1,1
79919,9.2060,-2.5620,-1.1900,0.2320,-0.0760,0.9500,33513,30650,11,121
79939,9.0140,-2.8540,0.0680,0.8710,0.2610,1.0180,33511,30650,5,25
79959,9.3900,-3.0020,0.9890,1.2390,0.4870,1.1320,33504,30660,1,1
79979,9.0920,-3.5160,0.2260,0.6200,0.4500,1.3810,33570,30664,9,81
80000,8.7380,-3.0020,0.4560,0.3500,0.3550,1.3490,33601,30660,2,4
80020,8.5330,-2.9050,0.4510,0.1350,0.2570,1.3430,33629,30654,15,225
80040,8.2100,-2.6170,0.3910,0.0720,0.1520,1.2750,33655,30651,12,144
80060,7.9690,-2.2130,0.3570,0.1840,0.0680,1.2270,33680,30638,9,81
80080,7.9770,-1.9210,0.6570,0.4670,0.0080,1.1420,33697,30626,10,100
80100,7.9140,-2.0370,0.8440,0.7600,-0.0330,1.0030,33699,30620,4,16
80120,7.8290,-2.2060,0.9000,0.9400,-0.0560,0.8170,33711,30618,8,64
80140,7.8090,-2.3650,0.9710,0.9690,-0.0750,0.6490,33711,30611,1,1
80160,8.1510,-2.4100,1.1360,0.9010,-0.0990,0.4690,33710,30611,4,16
80180,9.0390,-2.3860,1.3870,0.7600,-0.1830,0.1060,33700,30609,4,16
80201,9.9730,-2.4440,1.6140,0.6980,-0.2500,-0.2190,33683,30607,0,0
80221,11.0040,-2.7290,1.7170,0.6150,-0.3060,-0.6080,33669,30606,5,25
80241,11.8680,-2.8610,1.7090,0.5130,-0.3640,-1.0070,33653,30610,3,9
80261,12.9250,-3.1400,1.8780,0.4020,-0.4130,-1.3650,33631,30610,5,25
80281,13.4300,-3.5460,1.8720,0.2710,-0.4350,-1.6200,33597,30611,6,36
80301,13.3800,-3.8700,1.8280,0.0870,-0.4520,-1.7980,33579,30611,8,64
80321,12.6270,-4.1560,1.8500,-0.1840,-0.4430,-1.7580,33577,30608,0,0
80341,11.1560,-3.9710,1.9810,-0.4270,-0.4210,-1.5270,33586,30603,1,1
80361,9.6810,-3.6460,2.2120,-0.5080,-0.4170,-1.1660,33600,30607,1,1
80381,7.7020,-3.1350,2.4850,-0.2720,-0.3670,-0.4790,33611,30600,4,16
80402,7.6140,-3.0100,2.5610,0.0530,-0.2880,-0.1360,33612,30601,2,4
80422,7.7760,-2.9840,2.4860,0.3540,-0.1330,0.0680,33614,30600,5,25
80442,8.0280,-3.3840,2.2000,0.4390,0.0470,0.1910,33618,30607,-4,16
80462,8.1640,-3.7610,2.0150,0.2210,0.2120,0.2570,33619,30612,6,36
80482,8.2010,-4.0950,2.0610,-0.1840,0.3530,0.3180,33614,30616,2,4
80502,8.0350,-4.1120,2.0900,-0.6140,0.4270,0.3650,33609,30614,3,9
80522,7.8810,-4.1670,2.1660,-0.9960,0.4830,0.4660,33615,30612,0,0
80542,7.7010,-4.0570,2.2070,-1.2280,0.5530,0.5810,33620,30613,-1,1
80562,7.5870,-3.9590,2.2800,-1.2800,0.6000,0.6620,33640,30610,5,25
80582,7.6520,-4.3230,2.3480,-1.1320,0.6170,0.7770,33667,30605,4,16
80603,7.7060,-4.4530,2.3400,-0.9470,0.5680,0.8100,33695,30602,9,81
80623,7.8630,-4.6780,2.3670,-0.7670,0.4940,0.8670,33714,30600,7,49
80643,7.9860,-4.9760,2.4610,-0.5760,0.4280,0.9390,33724,30596,7,49
80663,8.0120,-5.0030,2.5950,-0.3380,0.3740,0.9810,33740,30595,7,49
80683,7.9390,-5.0640,2.6530,-0.0920,0.3340,1.0620,33745,30590,4,16
80703,7.9580,-5.3530,2.6350,0.0950,0.2980,1.1530,33749,30589,9,81
80723,8.1220,-5.6950,2.6820,0.2060,0.2580,1.2120,33750,30589,5,25
80743,8.4870,-5.9780,2.7340,0.3580,0.2030,1.2150,33755,30585,-8,64
80763,8.9870,-6.2980,2.7830,0.6750,0.1690,1.1720,33763,30588,8,64
80783,10.0580,-6.8090,2.9040,1.1690,0.0340,1.1810,33779,30578,1,1
80804,10.8850,-7.6040,3.1890,1.1740,-0.1200,1.2230,33768,30572,2,4
80824,10.8770,-7.8210,3.3200,1.0060,-0.2700,1.1330,33750,30566,3,9
80844,10.4050,-7.7880,3.3030,0.7880,-0.4040,1.0050,33740,30562,6,36
80864,9.5180,-7.3990,3.2540,0.5480,-0.5090,0.9790,33732,30557,0,0
80884,8.6610,-6.9530,3.1820,0.3450,-0.5860,1.0790,33716,30549,1,1
80904,7.8750,-6.2790,3.0510,0.2840,-0.6320,1.1990,33695,30548,-2,4
80924,7.2130,-5.5610,2.8900,0.3870,-0.6640,1.2920,33676,30544,-11,121
80944,6.9310,-5.1700,2.8830,0.6380,-0.6830,1.3160,33661,30540,9,81
80964,7.0260,-5.0090,2.9770,0.9370,-0.6620,1.2680,33646,30539,-21,441
80984,6.9250,-4.8390,2.7570,1.3370,-0.5590,1.0870,33614,30538,4,16
81005,6.8680,-4.9110,2.4620,1.3560,-0.4590,0.9630,33607,30536,5,25
81025,6.7670,-4.9900,2.2410,1.1950,-0.3490,0.8350,33605,30536,3,9
81045,6.6920,-5.0550,2.1990,0.9210,-0.2410,0.7270,33607,30539,8,64
81065,6.5820,-4.9790,2.4410,0.6630,-0.1240,0.6440,33617,30540,2,4
81085,6.4880,-5.0150,2.7310,0.4780,-0.0150,0.6190,33632,30539,1,1
81105,6.3730,-4.9960,2.8680,0.3320,0.0840,0.5940,33639,30541,0,0
81125,6.1500,-4.9990,2.7930,0.2230,0.1680,0.5290,33648,30544,0,0
81145,6.0270,-5.0070,2.6360,0.1200,0.2330,0.4680,33654,30540,0,0
81165,6.0690,-5.1790,2.5570,-0.0010,0.2770,0.4110,33659,30549,4,16
81185,6.2640,-5.3530,2.6240,-0.1810,0.2800,0.2780,33674,30556,-3,9
81206,6.2660,-5.3590,2.7150,-0.2300,0.2600,0.1890,33682,30558,3,9
81226,6.3270,-5.2900,2.7460,-0.2250,0.2220,0.0940,33682,30554,1,1
81246,6.4090,-5.3240,2.8160,-0.1750,0.1710,-0.0280,33683,30553,5,25
81266,6.6320,-5.3200,2.8540,-0.0570,0.1080,-0.2110,33683,30555,0,0
81286,7.1510,-5.5260,2.9770,0.1260,0.0220,-0.4360,33681,30555,2,4
81306,8.0060,-5.8950,3.1830,0.2810,-0.0510,-0.6760,33676,30557,1,1
81326,9.0310,-6.4680,3.2780,0.3190,-0.1070,-0.9360,33665,30558,4,16
81346,10.2780,-7.3380,3.5160,0.2580,-0.1310,-1.1910,33647,30554,2,4
81366,11.1670,-8.0230,3.6320,0.1670,-0.1360,-1.4100,33639,30553,0,0
81386,11.4470,-8.6310,3.3050,-0.1360,-0.1400,-1.4770,33639,30552,5,25
81407,10.5680,-8.5640,3.1380,-0.5270,-0.1400,-1.3140,33652,30556,3,9
81427,9.1470,-7.7680,3.1000,-0.8640,-0.1600,-1.0300,33674,30555,4,16
81447,7.4600,-6.3960,3.1600,-1.0450,-0.2060,-0.6240,33706,30554,4,16
81467,6.2310,-4.9220,3.3600,-1.0010,-0.2530,-0.1520,33728,30548,5,25
81487,5.5220,-3.8390,3.5710,-0.6440,-0.2790,0.1670,33726,30551,2,4
81507,5.2270,-3.1950,3.8650,-0.0260,-0.1860,0.1960,33712,30551,9,81
81527,5.2090,-3.7650,4.0030,0.5310,-0.0020,0.0760,33684,30554,6,36
81547,5.3070,-4.6320,4.0160,0.8070,0.2530,-0.1690,33662,30554,6,36
81567,5.4340,-5.6290,3.9610,0.6930,0.5220,-0.3590,33643,30553,5,25
81587,5.8100,-6.6100,4.2430,-0.1410,0.8160,-0.3170,33645,30553,3,9
81608,5.9650,-6.9050,4.3280,-0.8710,0.9370,-0.1010,33651,30553,2,4
81628,5.9530,-6.5680,4.4330,-1.3790,1.0230,0.1010,33652,30550,1,1
81648,5.8740,-6.1890,4.4100,-1.5480,1.0700,0.2880,33652,30548,4,16
81668,5.7170,-5.8360,4.4360,-1.4220,1.0520,0.4070,33661,30549,2,4
81688,5.6170,-5.5410,4.5210,-1.1420,0.9820,0.4710,33663,30548,5,25
81708,5.4720,-5.5350,4.5380,-0.8020,0.8890,0.5060,33656,30550,0,0
81728,5.3580,-5.5810,4.4470,-0.5120,0.7920,0.5000,33659,30558,5,25
81748,5.2120,-5.7780,4.2720,-0.3510,0.7090,0.5320,33666,30556,4,16
81768,5.2280,-6.0170,4.3660,-0.3100,0.6460,0.5850,33672,30561,7,49
81788,5.3270,-5.8980,4.4860,-0.3070,0.5210,0.5800,33676,30563,5,25
81809,5.6310,-5.9560,4.6530,-0.2540,0.4180,0.5390,33674,30561,6,36
81829,6.0320,-6.1080,4.7410,-0.1280,0.3150,0.4320,33672,30560,-9,81
81849,6.5030,-6.2790,4.5600,-0.0090,0.2120,0.2760,33668,30554,11,121
81869,7.2030,-6.6330,4.2460,-0.0400,0.1220,0.1050,33662,30549,3,9
81889,8.2580,-7.3050,4.3100,-0.2170,0.0190,-0.1100,33646,30547,0,0
81909,9.2280,-8.3050,4.5480,-0.3690,-0.0590,-0.3580,33603,30541,0,0
81929,9.2790,-8.9030,4.3670,-0.3710,-0.1350,-0.5450,33569,30543,0,0
81949,8.4960,-8.7090,3.8270,-0.3300,-0.1880,-0.4900,33571,30544,22,484
81969,7.2870,-8.1400,3.1640,-0.3540,-0.2750,-0.0440,33596,30546,-20,400
81992,6.9420,-7.7260,3.1650,-0.3430,-0.3250,0.1380,33607,30550,17,289
82012,6.6570,-7.0640,3.3210,-0.0780,-0.3960,0.1550,33620,30551,5,25
82032,6.5300,-6.7960,3.5040,0.4100,-0.4420,0.1130,33636,30551,10,100
82052,6.3760,-7.0190,3.3570,0.8370,-0.4280,0.0900,33647,30551,8,64
82072,6.0810,-7.1850,3.1740,0.9640,-0.3550,0.1220,33662,30551,7,49
82092,5.7370,-7.1730,3.0360,0.7860,-0.2490,0.2090,33674,30543,-2,4
82112,5.4320,-6.7280,3.1910,0.4840,-0.1540,0.2750,33677,30546,-4,16
82132,4.9440,-5.7210,3.4110,0.1340,-0.0660,0.2950,33680,30546,4,16
82153,4.7310,-5.1600,3.3830,0.0550,-0.0240,0.2710,33673,30544,2,4
82173,4.5680,-4.7560,3.3100,0.0690,0.0050,0.2180,33669,30548,1,1
82193,4.5980,-4.4130,3.2030,0.1490,0.0070,0.1390,33669,30551,2,4
82213,4.7260,-4.1750,3.1160,0.2400,-0.0170,0.0310,33673,30559,5,25
82233,4.9630,-4.0010,3.0600,0.2960,-0.0760,-0.1100,33678,30559,3,9
82253,5.3690,-3.9730,3.0740,0.3270,-0.1310,-0.2930,33669,30562,2,4
82273,5.8800,-4.1770,3.1880,0.3610,-0.1800,-0.4930,33653,30557,27,729
82293,6.4500,-4.3430,3.3000,0.4350,-0.2490,-0.7050,33637,30557,3,9
82313,6.8670,-4.5920,3.2610,0.4920,-0.3130,-0.8680,33609,30552,7,49
82333,7.8310,-4.9600,3.1290,0.4130,-0.4310,-1.0740,33575,30549,0,0
82354,8.9560,-4.7670,3.2110,0.3570,-0.5400,-1.3180,33556,30553,4,16
82374,10.1630,-4.4620,3.3570,0.3390,-0.6760,-1.6400,33510,30555,2,4
82394,11.3580,-4.2810,3.2590,0.2770,-0.8270,-2.0260,33473,30559,8,64
82414,12.2540,-4.1740,3.0270,0.1130,-0.9550,-2.4210,33433,30560,8,64
82434,12.8470,-4.1370,2.7860,-0.1950,-1.0300,-2.7280,33397,30564,4,16
82454,13.1720,-4.0380,2.6710,-0.5780,-1.0590,-2.9250,33384,30566,2,4
82474,12.6990,-4.0990,2.5020,-1.0210,-1.0510,-2.9550,33387,30570,6,36
82494,11.5830,-3.9170,2.9050,-1.3390,-0.9750,-2.8110,33397,30572,5,25
82514,10.0440,-3.6200,3.1270,-1.4570,-0.8850,-2.4990,33414,30571,-2,4
82534,8.4040,-2.5700,3.0080,-1.1650,-0.6870,-1.7350,33450,30577,-10,100
82555,8.5270,-2.5610,2.9100,-0.7500,-0.4960,-1.2830,33451,30578,17,289
82575,8.8630,-2.7990,2.7880,-0.2970,-0.2480,-1.0670,33439,30580,-9,81
82595,8.9580,-3.6680,2.4090,-0.1650,0.0120,-0.9820,33429,30583,17,289
82615,8.7640,-4.3510,2.1370,-0.4810,0.2280,-0.9060,33442,30589,7,49
82635,8.3460,-4.4470,2.0570,-1.0790,0.3380,-0.7130,33463,30585,5,25
82655,8.0960,-4.4340,2.1790,-1.6870,0.4060,-0.3870,33481,30584,-8,64
82675,7.8840,-4.1320,2.1970,-2.0780,0.4400,-0.0830,33494,30583,13,169
82695,7.7910,-3.8060,2.3690,-2.1720,0.4530,0.1610,33500,30577,0,0
82715,7.6790,-3.4560,2.6350,-1.9900,0.4440,0.3100,33502,30578,8,64
82735,7.4040,-3.2510,2.6250,-1.4510,0.3870,0.3410,33509,30582,6,36
82756,7.3040,-3.2910,2.5770,-1.1650,0.3340,0.3220,33520,30582,7,49
82776,7.3370,-3.3220,2.6560,-0.9910,0.2620,0.2970,33526,30586,3,9
82796,7.4330,-3.2860,2.8070,-0.8720,0.1800,0.2670,33529,30581,5,25
82816,7.6530,-3.2530,2.8410,-0.7560,0.0920,0.2120,33529,30584,1,1
82836,7.8120,-3.1970,2.8930,-0.6660,0.0140,0.1510,33528,30585,4,16
82856,8.1620,-3.2200,3.0130,-0.5900,-0.0840,0.0710,33520,30582,5,25
82876,8.6430,-3.2920,3.1780,-0.5070,-0.1630,-0.0160,33510,30581,3,9
82896,9.2370,-3.3520,3.3020,-0.3780,-0.2370,-0.1340,33501,30576,0,0
82916,9.8080,-3.5650,3.3230,-0.2180,-0.2780,-0.2370,33490,30579,9,81
82936,11.6790,-4.0430,3.0870,-0.0560,-0.3250,-0.3350,33475,30579,1,1
82957,13.0810,-4.5360,3.1390,-0.0630,-0.3250,-0.4000,33451,30580,3,9
82977,13.6210,-4.8700,3.1500,-0.0820,-0.3300,-0.5210,33435,30575,7,49
82997,12.9710,-5.2670,3.0990,-0.1650,-0.3170,-0.5400,33433,30574,5,25
83017,11.5410,-5.3590,2.9450,-0.2700,-0.2560,-0.3290,33448,30576,3,9
83037,10.5400,-4.8750,2.7520,-0.2390,-0.2360,0.0040,33483,30576,0,0
83057,10.0020,-4.4160,2.6910,-0.0650,-0.1970,0.4560,33502,30575,14,196
83077,10.0840,-4.1900,2.7800,0.3240,-0.1650,0.7610,33501,30573,-6,36
83097,10.1910,-3.9490,2.6560,0.8300,-0.1240,0.8800,33509,30570,7,49
83117,10.2200,-3.8180,2.4210,1.2160,-0.0530,0.9540,33531,30572,0,0
83137,9.7550,-3.9620,1.8830,1.2130,0.0900,1.1340,33562,30566,6,36
83158,9.4340,-3.7700,1.7190,0.9400,0.1840,1.2740,33572,30558,5,25
83178,8.9970,-3.4510,1.6530,0.6830,0.2470,1.3680,33568,30560,24,576
83198,8.4430,-3.2090,1.5300,0.5380,0.2770,1.3950,33572,30559,8,64
83218,8.0830,-2.9440,1.4520,0.4980,0.2810,1.3810,33582,30557,7,49
83238,7.7200,-2.6950,1.3670,0.5320,0.2570,1.3390,33593,30561,15,225
83258,7.8270,-2.4920,1.3960,0.6490,0.2350,1.2510,33602,30562,5,25
83278,7.7860,-2.3550,1.3740,0.8090,0.2230,1.1060,33604,30560,-10,100
83298,7.7880,-2.4270,1.2640,0.8990,0.2150,0.9340,33604,30560,7,49
83318,7.7420,-2.4490,1.1660,0.8620,0.2040,0.7440,33604,30561,7,49
83338,7.7960,-2.3690,1.1440,0.6430,0.1670,0.4470,33608,30560,13,169
83359,7.9400,-2.2670,1.1890,0.4790,0.1360,0.2420,33609,30560,2,4
83379,8.1350,-2.1270,1.2860,0.3600,0.0990,0.0050,33600,30555,-3,9
83399,8.6050,-2.1560,1.4170,0.3000,0.0500,-0.2610,33591,30556,-4,16
83419,9.5850,-2.2650,1.5600,0.2940,0.0060,-0.5620,33583,30555,-3,9
83439,10.8470,-2.5550,1.7680,0.3230,-0.0240,-0.8880,33565,30552,2,4
83459,11.8920,-2.9470,1.8440,0.3490,-0.0540,-1.1790,33543,30557,2,4
83479,12.8530,-3.2140,1.8020,0.3280,-0.1080,-1.3980,33522,30555,6,36
83499,13.3420,-3.5610,1.7330,0.1690,-0.1560,-1.4930,33506,30555,8,64
83519,13.4450,-3.8060,1.6870,-0.1000,-0.2150,-1.5050,33495,30559,6,36
83539,12.3070,-3.9900,1.8770,-0.5770,-0.3050,-1.3670,33499,30556,15,225
83560,10.7400,-3.6520,2.1280,-0.7150,-0.3650,-1.1400,33512,30555,3,9
83580,9.1750,-3.1910,2.3970,-0.6530,-0.4360,-0.8020,33531,30548,7,49
83600,7.9790,-2.6520,2.5490,-0.4200,-0.4930,-0.3610,33544,30546,5,25
83620,7.7760,-2.2740,2.6910,-0.0670,-0.5150,0.0000,33557,30541,-5,25
83640,8.0280,-1.9370,2.8680,0.3510,-0.4570,0.1650,33553,30537,10,100
83660,8.2800,-2.1630,2.6840,0.5400,-0.3540,0.1860,33535,30541,-15,225
83680,8.1970,-2.5330,2.3590,0.4270,-0.2220,0.0890,33520,30540,17,289
83700,7.8530,-2.7770,2.1580,0.0390,-0.1030,-0.0190,33514,30543,8,64
83720,7.4780,-2.7380,2.2340,-0.5080,-0.0210,-0.0770,33515,30545,6,36
83740,7.0340,-2.3860,2.3630,-1.1230,0.0320,-0.0560,33516,30544,4,16
83761,6.9260,-2.2530,2.3260,-1.2800,0.0610,-0.0310,33513,30544,4,16
83781,7.0200,-2.1450,2.4250,-1.2440,0.0750,-0.0420,33516,30548,-5,25
83801,7.1900,-2.0870,2.5760,-1.0480,0.0640,-0.0960,33515,30545,7,49
83821,7.3670,-2.1910,2.5550,-0.7820,0.0380,-0.1840,33512,30548,8,64
83841,7.6470,-2.5500,2.4960,-0.5910,0.0110,-0.2890,33513,30547,1,1
83861,8.0120,-2.8300,2.4890,-0.5720,-0.0190,-0.3630,33510,30551,4,16
83881,8.4490,-2.9470,2.5580,-0.6400,-0.0470,-0.3980,33511,30555,0,0
83901,8.7870,-2.9770,2.6000,-0.7110,-0.0790,-0.4200,33504,30546,-6,36
83921,9.0200,-3.0720,2.7070,-0.7390,-0.1090,-0.4360,33500,30554,5,25
83941,9.3740,-3.1970,2.8850,-0.6430,-0.1810,-0.4610,33486,30548,0,0
83962,9.8940,-3.4010,2.9640,-0.4880,-0.2330,-0.4720,33481,30546,4,16
83982,10.5260,-3.6630,3.1040,-0.2990,-0.2610,-0.4850,33472,30546,11,121
84002,11.2290,-3.8940,3.0660,-0.1360,-0.2850,-0.5010,33464,30545,11,121
84022,12.3460,-4.0740,2.9110,-0.0870,-0.3060,-0.5080,33461,30547,6,36
84042,13.2610,-4.4070,2.9570,-0.1770,-0.2970,-0.5340,33439,30545,5,25
84062,13.4400,-4.6180,2.9650,-0.3130,-0.2910,-0.6140,33424,30550,3,9
84082,12.7900,-4.8150,3.0780,-0.4350,-0.2730,-0.6260,33426,30549,2,4
84102,11.3990,-4.8100,3.1990,-0.4620,-0.2120,-0.4900,33435,30549,5,25
84122,10.0220,-4.4180,3.0450,-0.3200,-0.1790,-0.2410,33461,30545,3,9
84142,8.6570,-3.7540,2.9150,0.1280,-0.1000,0.3900,33505,30538,6,36
84163,8.5800,-3.6440,2.8540,0.5550,-0.0310,0.6880,33509,30533,-4,16
84183,8.9990,-3.4120,2.8890,1.0210,0.0660,0.8000,33514,30529,9,81
84203,9.6340,-3.4780,2.8850,1.3600,0.1690,0.8380,33509,30533,-7,49
84223,10.0040,-3.6560,2.5640,1.4210,0.3110,0.8740,33507,30530,6,36
84243,10.1190,-3.7480,2.1490,1.1620,0.4780,0.9530,33518,30534,-4,16
84263,9.9840,-3.7170,1.8750,0.6580,0.6440,1.0690,33525,30541,32,1024
84283,9.6150,-3.4230,1.6260,0.1650,0.7450,1.1740,33534,30542,4,16
84303,9.1210,-3.0720,1.3680,-0.1990,0.7830,1.2680,33538,30537,6,36
84323,8.8140,-2.6020,1.2900,-0.4380,0.7480,1.3290,33548,30541,-1,1
84345,8.6560,-2.3210,1.2770,-0.3530,0.6940,1.2620,33562,30538,2,4
84365,8.3950,-2.0900,1.1100,-0.1370,0.6320,1.1500,33575,30540,-6,36
84385,8.0880,-2.0110,0.8970,0.1040,0.5740,1.0300,33590,30536,8,64
84405,8.0110,-2.0630,0.8120,0.2980,0.5010,0.9010,33598,30538,8,64
84425,8.0420,-2.1630,0.7970,0.4160,0.4150,0.7620,33610,30535,2,4
84445,8.1560,-2.1950,0.7410,0.4590,0.3210,0.6130,33618,30532,0,0
84465,8.2820,-2.2190,0.7520,0.4580,0.2330,0.4510,33627,30532,16,256
84485,8.6320,-2.2890,0.8490,0.4490,0.1480,0.2570,33631,30528,0,0
84505,9.4730,-2.3040,1.1200,0.4990,0.0320,-0.0860,33629,30525,2,4
84526,10.4260,-2.4580,1.3680,0.5650,-0.0410,-0.3620,33622,30523,6,36
84546,11.3760,-2.7340,1.3920,0.6020,-0.1040,-0.6770,33609,30527,6,36
84566,12.1110,-3.0150,1.5160,0.5460,-0.1620,-0.9490,33594,30530,1,1
84586,12.9230,-3.2320,1.5250,0.3580,-0.2280,-1.1650,33576,30526,-3,9
84606,12.9970,-3.5910,1.5280,0.0480,-0.2800,-1.2920,33562,30526,2,4
84626,12.6010,-3.8360,1.5480,-0.3090,-0.3610,-1.3400,33554,30527,0,0
84646,11.3770,-3.8990,1.7480,-0.6410,-0.4460,-1.2430,33554,30522,1,1
84666,9.8900,-3.4520,2.0600,-0.7620,-0.5380,-1.0150,33577,30514,3,9
84686,8.8010,-2.8230,2.4800,-0.5630,-0.6580,-0.6880,33595,30508,7,49
84706,8.0820,-2.2370,2.7800,0.0800,-0.7320,-0.1670,33591,30501,-2,4
84727,8.4080,-1.9940,2.9590,0.5980,-0.7020,-0.0300,33582,30503,6,36
84747,8.7830,-2.3030,2.7660,0.8860,-0.5940,-0.0080,33559,30504,4,16
84767,8.6810,-2.8620,2.4980,0.7610,-0.4440,-0.0880,33529,30512,-2,4
84787,8.2490,-3.2390,2.2280,0.2790,-0.2990,-0.2050,33522,30519,2,4
84807,7.6840,-3.1380,2.2770,-0.4080,-0.1960,-0.2100,33524,30519,2,4
84827,7.2230,-2.7900,2.4180,-1.0050,-0.1280,-0.0940,33531,30517,5,25
84847,6.9810,-2.5470,2.4000,-1.3530,-0.0740,0.0190,33523,30516,20,400
84867,6.8410,-2.2740,2.3340,-1.4340,-0.0290,0.0400,33522,30514,1,1
84887,6.9220,-2.0840,2.3450,-1.3010,-0.0140,-0.0050,33521,30519,0,0
84907,7.1240,-2.0570,2.2600,-0.9380,-0.0550,-0.1480,33530,30520,5,25
84928,7.3920,-2.2390,2.1760,-0.6970,-0.1050,-0.2730,33532,30520,6,36
84948,7.7880,-2.4800,2.2880,-0.5090,-0.1600,-0.3970,33531,30522,6,36
84968,8.1710,-2.7440,2.3930,-0.3780,-0.2120,-0.4890,33530,30523,3,9
84988,8.5160,-2.9770,2.4470,-0.2900,-0.2540,-0.5210,33526,30524,3,9
85008,8.9850,-3.1410,2.5400,-0.2230,-0.2780,-0.5150,33526,30523,6,36
85028,9.5600,-3.2500,2.7530,-0.1570,-0.2920,-0.4990,33515,30519,3,9
85048,10.2120,-3.4600,2.8340,-0.0950,-0.2980,-0.5070,33508,30520,7,49
85068,10.9730,-3.7070,2.8690,-0.0660,-0.2810,-0.5430,33500,30518,3,9
85088,11.5870,-4.0290,2.8410,-0.0960,-0.2520,-0.5850,33491,30521,5,25
85108,12.6560,-4.3920,2.5090,-0.3400,-0.2330,-0.5820,33482,30522,1,1
85129,13.3290,-4.5290,2.5790,-0.6120,-0.2270,-0.5320,33473,30522,1,1
85149,13.2850,-4.5620,2.5990,-0.7430,-0.2340,-0.5340,33466,30518,1,1
85169,12.6050,-4.6030,2.7160,-0.7460,-0.2310,-0.4850,33475,30523,4,16
85189,11.0310,-4.4220,2.7010,-0.6010,-0.2070,-0.3280,33497,30519,5,25
85209,9.7660,-4.0270,2.6670,-0.3110,-0.2080,-0.0920,33520,30508,5,25
85229,8.9940,-3.6600,2.7500,0.0990,-0.1690,0.2360,33534,30505,1,1
85249,8.7810,-3.5330,2.8810,0.6630,-0.0960,0.4710,33529,30503,7,49
85269,8.9160,-3.5220,2.7960,1.2930,0.0220,0.5510,33525,30502,2,4
85289,9.1710,-3.7910,2.6060,1.7130,0.1630,0.6270,33528,30506,3,9
85309,10.1570,-4.1910,2.3010,1.7960,0.4120,0.7680,33537,30512,5,25
85330,10.5330,-4.3140,2.0520,1.5040,0.6070,0.8880,33540,30513,3,9
85350,10.3640,-4.4160,1.5160,0.9530,0.8030,1.0310,33551,30514,6,36
85370,9.8520,-4.2560,1.1160,0.1760,0.9570,1.2320,33563,30521,6,36
85390,9.6180,-3.6750,1.1100,-0.4810,1.0080,1.4420,33572,30514,28,784
85410,9.4420,-3.1840,1.1500,-0.8780,1.0030,1.6010,33574,30515,0,0
85430,9.2010,-2.7210,1.0610,-1.0300,0.9630,1.6770,33582,30514,15,225
85450,8.9050,-2.2410,0.9540,-0.9470,0.9060,1.6830,33591,30511,11,121
85470,8.6720,-1.8770,0.7750,-0.6950,0.8330,1.6280,33608,30508,1,1
85490,8.4690,-1.6290,0.6660,-0.3510,0.7390,1.5320,33617,30508,9,81
85510,8.2230,-1.4170,0.5420,0.2110,0.5600,1.2450,33634,30509,-2,4
85531,8.2770,-1.4320,0.4930,0.5010,0.4330,1.0080,33639,30509,7,49
85551,8.4050,-1.5160,0.5400,0.6760,0.3030,0.7290,33644,30509,-2,4
85571,8.6100,-1.5900,0.6090,0.7750,0.1840,0.4160,33641,30507,-4,16
85591,9.3550,-1.6580,0.8060,0.8500,0.0720,0.0500,33635,30507,-3,9
85611,10.4210,-1.8360,1.0530,0.9030,-0.0220,-0.3220,33621,30510,0,0
85631,11.3100,-2.1670,1.1950,0.9040,-0.0890,-0.6920,33605,30507,4,16
85651,11.9300,-2.4280,1.3000,0.8200,-0.1550,-1.0290,33590,30508,5,25
85671,12.7010,-2.7020,1.4840,0.6270,-0.2340,-1.2870,33580,30505,4,16
85691,12.7620,-3.0170,1.5590,0.3340,-0.2890,-1.4540,33566,30508,5,25
85711,12.2130,-3.4150,1.5120,-0.2340,-0.3890,-1.5560,33568,30503,8,64
85732,11.0050,-3.5300,1.7110,-0.6430,-0.4180,-1.4400,33564,30489,8,64
85752,9.7460,-3.2450,1.9910,-0.8500,-0.4800,-1.2730,33564,30487,7,49
85772,8.6830,-2.8650,2.3180,-0.8100,-0.5520,-1.0260,33568,30482,6,36
85792,8.1890,-2.4430,2.6870,-0.5190,-0.6090,-0.7050,33560,30485,8,64
85812,8.4620,-2.3150,2.9170,-0.0740,-0.6100,-0.4990,33553,30487,7,49
85832,8.7950,-2.3200,2.8360,0.3370,-0.5410,-0.4060,33546,30493,2,4
85852,8.9360,-2.6280,2.5010,0.4930,-0.4330,-0.3580,33537,30495,12,144
85872,8.8020,-3.0170,2.2540,0.2740,-0.3110,-0.3130,33534,30493,3,9
85892,8.2840,-3.1880,2.1980,-0.2160,-0.2220,-0.2720,33531,30498,2,4
85912,7.3070,-2.7320,2.2920,-0.9530,-0.1620,-0.1340,33538,30495,11,121
85933,6.9700,-2.4380,2.3040,-1.1960,-0.1240,-0.0300,33538,30495,4,16
85953,6.8890,-2.2530,2.2860,-1.2330,-0.0800,0.0010,33539,30495,16,256
85973,6.9740,-2.1400,2.3550,-1.1100,-0.0590,-0.0440,33541,30493,7,49
85993,7.2760,-2.1180,2.4090,-0.8960,-0.0660,-0.1350,33544,30501,1,1
86013,7.5930,-2.4280,2.4840,-0.6740,-0.0950,-0.2670,33544,30498,0,0
86033,7.8810,-2.7490,2.5000,-0.5570,-0.1350,-0.4080,33542,30504,-1,1
86053,8.1190,-2.9580,2.6100,-0.5200,-0.1660,-0.4940,33540,30502,4,16
86073,8.3880,-3.1260,2.7350,-0.5100,-0.1850,-0.5220,33535,30497,6,36
86093,8.7110,-3.2370,2.8480,-0.4960,-0.2010,-0.5130,33532,30496,3,9
86113,9.5370,-3.4260,3.1360,-0.4240,-0.2030,-0.4870,33518,30497,2,4
86134,10.1260,-3.5910,3.1500,-0.3280,-0.2050,-0.5080,33512,30495,7,49
86154,10.7220,-3.8100,3.0860,-0.2660,-0.1930,-0.5100,33505,30493,-8,64
86174,11.3260,-4.0990,2.9700,-0.2800,-0.1790,-0.4760,33500,30493,5,25
86194,12.2280,-4.3530,2.7590,-0.3790,-0.1770,-0.4180,33494,30492,6,36
86214,13.2110,-4.6690,2.7870,-0.5060,-0.1720,-0.3570,33489,30495,7,49
86234,13.4640,-4.8150,2.7760,-0.4860,-0.1810,-0.3500,33489,30496,1,1
86254,13.1330,-4.8770,2.7220,-0.3570,-0.1970,-0.3220,33506,30493,7,49
86274,12.0520,-5.0230,2.8040,-0.1730,-0.1660,-0.1590,33538,30487,5,25
86294,10.6520,-5.0120,2.6870,0.0750,-0.1350,0.0640,33562,30479,7,49
86314,9.1880,-4.8170,2.4780,0.4930,-0.0550,0.6290,33608,30473,14,196
86335,8.8710,-4.7800,2.3930,0.8090,0.0120,1.0080,33621,30475,5,25
86355,9.0520,-4.9330,2.2170,1.1070,0.0860,1.3250,33629,30470,0,0
86375,9.3730,-5.1440,2.1270,1.3910,0.1650,1.5550,33634,30467,-10,100
86395,9.6920,-5.2560,1.9450,1.6790,0.2700,1.7130,33644,30466,6,36
86415,10.0440,-5.5670,1.5620,1.8220,0.4050,1.9470,33661,30467,6,36
86435,10.2450,-6.0630,1.4230,1.7310,0.5330,2.1500,33670,30472,3,9
86455,10.1600,-6.1960,1.3740,1.4860,0.6380,2.2840,33677,30473,14,196
86475,9.8670,-6.0200,1.3410,1.1660,0.7180,2.4140,33688,30468,-6,36
86495,9.4970,-5.8100,1.2950,0.8430,0.7600,2.5240,33700,30467,-1,1
86515,8.9690,-5.3980,1.3050,0.4370,0.7870,2.5960,33720,30461,0,0
86536,8.3830,-4.7550,1.1850,0.3950,0.7720,2.5540,33734,30455,8,64
86556,7.7030,-4.2900,0.9760,0.5220,0.7580,2.5110,33741,30449,5,25
86576,7.2840,-4.3280,1.3290,0.7300,0.7890,2.4500,33735,30450,8,64
86596,7.1300,-4.3670,1.5250,0.9650,0.8050,2.3180,33733,30447,21,441
86616,6.6250,-4.1370,1.4660,1.2930,0.8530,2.0970,33726,30450,10,100
86636,6.2130,-4.0900,1.0940,1.5820,0.9220,1.8720,33722,30449,2,4
86656,5.8740,-3.7740,1.5530,1.8770,1.0960,1.5950,33733,30449,-4,16
86676,6.1380,-3.2510,2.3740,2.4550,1.2670,1.2770,33790,30443,3,9
86696,6.1870,-3.3180,4.0010,2.7220,1.4320,1.0690,33793,30415,0,0
86716,6.3930,-3.4480,6.0110,2.4280,1.1180,0.7180,33353,30251,6,36
86737,6.5370,-4.7480,5.4600,1.9580,0.6750,0.3860,33149,30177,4,16
86757,6.5600,-5.3670,4.7450,1.2900,0.2430,0.0290,33057,30131,1,1
86777,6.6760,-4.7060,5.3040,0.7340,-0.0780,-0.2180,33062,30059,-3,9
86797,7.0210,-4.4800,6.2330,0.4860,-0.3410,-0.4310,33094,30009,13,169
86817,6.7880,-4.2820,5.8190,0.3790,-0.6100,-0.7260,33130,29996,-11,121
86837,6.5230,-4.1180,6.0880,0.2050,-0.7380,-0.8960,33151,29996,14,196
86857,6.5000,-4.2400,6.8010,0.1120,-0.8210,-0.9240,33159,29988,7,49
86877,6.3230,-4.0980,7.1200,0.2250,-0.7220,-0.8750,33152,29987,4,16
86897,6.0530,-3.9280,6.3950,0.4020,-0.5830,-0.7310,33144,29987,13,169
86917,6.3510,-3.5490,5.8360,0.5940,-0.4300,-0.4450,33130,29971,8,64
86938,6.8450,-4.0580,6.4950,0.5340,-0.2880,-0.3190,33065,29928,25,625
86958,7.0500,-4.3050,7.2560,0.3050,-0.1920,-0.3110,33034,29922,16,256
86978,6.6890,-4.0610,7.2560,0.0870,-0.0810,-0.3230,33041,29927,5,25
86998,6.4420,-3.6640,7.1720,0.1300,0.1410,-0.3270,33059,29934,2,4
87018,6.3400,-3.5610,7.0280,0.1750,0.2770,-0.1850,33086,29945,-1,1
87038,6.2490,-3.9240,6.6190,0.0900,0.3350,-0.0350,33106,29953,4,16
87058,5.9350,-4.0130,6.2000,-0.1560,0.3580,0.0770,33113,29956,4,16
87078,5.7040,-3.4940,5.9360,-0.2280,0.3590,0.1510,33110,29957,5,25
87098,5.4720,-3.4380,6.1120,0.0710,0.4290,0.1580,33104,29956,3,9
87120,5.5650,-4.0390,6.2540,0.2490,0.4560,0.1630,33112,29960,8,64
87140,5.6590,-4.4040,6.4720,0.0960,0.4800,0.2140,33123,29960,-1,1
87160,5.4900,-4.0230,6.8160,-0.0250,0.4750,0.2570,33127,29964,2,4
87180,5.2310,-3.8310,6.8290,-0.0660,0.4890,0.2550,33132,29969,-2,4
87200,5.1120,-4.4600,7.0260,-0.0570,0.4930,0.2930,33160,29977,-1,1
87220,5.2130,-4.6240,7.1890,-0.1440,0.4750,0.3890,33194,29990,-3,9
87240,5.3140,-4.3240,6.9180,-0.2390,0.4430,0.4700,33220,29998,4,16
87260,5.6900,-4.1190,7.3800,-0.1550,0.4440,0.4630,33234,30008,1,1
87280,8.0040,-4.6940,8.0840,-0.2060,0.4160,0.4260,33257,30015,7,49
87301,13.0350,-4.8690,9.8630,-1.3320,0.2190,0.6160,33273,30012,6,36
87321,25.2610,-7.2540,13.1150,-1.1230,0.5700,0.1310,33258,29996,4,16
87341,36.0820,-18.5100,22.6040,0.4620,3.0850,-0.4790,33284,30025,3,9
87361,35.2710,-27.8030,23.7240,-2.5450,4.1710,0.8040,33450,30105,8,64
87381,36.2060,-13.5310,24.8890,-3.3950,3.2580,3.2340,33524,30154,2,4
87401,23.2020,-5.3010,13.9130,0.1990,2.2120,4.7690,33608,30280,8,64
87421,1.8180,-8.0360,1.9060,0.1710,1.9390,4.1340,33982,30543,4,16
87441,-17.1410,3.4930,2.8680,-3.3890,1.2250,1.7290,34358,31255,3,9
87461,-18.7810,21.9640,-3.6010,-2.5560,1.2420,-0.4570,34687,31584,-6,36
87481,-8.0670,28.6110,-0.3330,-0.5940,-0.5080,-3.4060,35191,32085,-13,169
87502,-8.2150,6.0630,4.2250,-0.4070,-0.7210,-4.0010,35265,32095,-5,25
87522,-11.2660,-13.9390,-2.0910,-3.3690,0.0680,-2.3580,34559,31748,14,196
87542,-9.1280,-18.3310,-5.5080,-7.1930,0.5880,-0.8570,34094,31661,5,25
87562,-4.8910,-11.4710,-2.4100,-8.7310,0.9830,-0.0450,33920,31912,4,16
87582,-2.6170,0.9550,-2.4950,-8.7310,0.7290,-0.2670,33568,35215,11,121
87602,-3.8760,7.4060,-8.1030,-4.7600,-0.4770,-0.8660,37081,41565,-11,121
87622,-3.6400,5.0160,-9.0450,-0.3810,-1.2290,-1.0790,37472,41058,-3,9
87642,0.0360,-1.4700,-6.4720,2.6480,-1.6020,-1.4790,37086,37351,16,256
87662,3.1590,-10.1530,-2.5700,4.1960,-1.5120,-1.5720,35370,33582,9,81
87682,6.1530,-9.2510,1.4270,7.7120,-0.9110,-2.7810,34105,31693,3,9
87703,7.4970,-8.2430,3.6670,8.7310,-0.6910,-2.8900,33652,31001,-5,25
87723,9.4920,-9.8040,6.6700,8.7310,-0.4090,-2.5340,33471,30846,6,36
87743,9.5180,-12.4850,8.2160,6.5460,0.0350,-1.8770,33384,30857,13,169
87763,6.0250,-8.1930,7.3260,0.7460,-0.4400,-1.7320,33378,30830,6,36
87783,3.1960,-3.4850,7.8060,-4.0270,-1.5180,-1.0150,33423,30649,9,81
87803,3.3700,-3.1000,7.1780,-6.7600,-1.9240,0.3200,33342,30457,0,0
87823,4.5770,-4.3310,5.4170,-8.4000,-1.8560,1.1480,33167,30455,1,1
87843,6.3110,-4.7170,4.7320,-8.7310,-1.5060,0.8770,33066,30631,-2,4
87863,6.6450,-4.4700,5.2780,-7.9080,-1.0970,0.0910,33072,30954,4,16
87883,7.0880,-4.0040,4.7880,-3.9580,-0.3180,-1.5720,33140,31216,5,25
87904,8.5110,-2.6350,3.7040,-0.9410,0.2380,-2.9400,33140,31170,6,36
87924,10.4450,-1.8020,3.1740,1.3910,0.5840,-4.0500,33134,31217,5,25
87944,12.7690,-1.0220,3.3880,3.0370,0.7740,-4.9490,33187,31253,9,81
87964,14.3630,-2.0520,3.3170,3.5680,0.6850,-5.2240,33223,31174,3,9
87984,15.4940,-1.4390,2.9960,3.8110,0.2410,-5.4200,33184,30955,6,36
88004,15.9330,-2.1490,2.0460,3.3370,-0.2080,-5.1520,33115,30749,11,121
88024,15.9010,-2.5250,1.0500,2.1960,-0.6650,-4.5750,33086,30840,8,64
88044,15.4890,-2.7690,0.5760,0.7920,-0.9320,-4.0020,33160,31036,3,9
88064,14.7820,-2.6000,0.5660,-0.5260,-1.0110,-3.4440,33213,31191,1,1
88084,13.5100,-2.2000,1.7170,-1.5200,-0.8210,-2.8780,33307,31433,9,81
88105,12.1190,-2.1440,2.6340,-1.3210,-0.6350,-2.5230,33350,31447,2,4
88125,10.6980,-2.0540,2.9030,-0.8460,-0.4560,-2.1180,33319,31363,4,16
88145,9.4090,-1.9090,2.3420,-0.3060,-0.2800,-1.7280,33270,31395,7,49
88165,8.4580,-2.2130,1.6860,-0.0430,-0.1760,-1.4030,33303,31635,0,0
88185,8.0900,-2.6820,1.6150,-0.0880,-0.1050,-1.1760,33436,32089,3,9
88205,8.1380,-3.0330,1.9150,-0.2530,-0.1630,-1.0500,33561,32561,0,0
88225,8.1390,-3.0410,2.2050,-0.3370,-0.1880,-0.9380,33766,32900,4,16
88245,8.0640,-2.9480,2.2640,-0.3670,-0.1830,-0.7800,33791,32847,-2,4
88265,8.1460,-3.1520,2.2130,-0.3510,-0.1620,-0.5700,33786,32841,8,64
88285,8.8350,-2.8810,1.7560,-0.2940,-0.2540,-0.2530,33673,32542,3,9
88306,9.3880,-2.4890,2.3580,-0.1690,-0.2410,-0.0020,33644,32550,-2,4
88326,10.1040,-2.0830,2.9320,0.0690,-0.2070,0.3750,33646,32510,4,16
88346,10.5750,-2.0180,2.6200,0.2980,-0.2370,0.7130,33581,32297,10,100
88366,11.1960,-1.9320,2.3270,0.3890,-0.2260,1.0100,33465,32016,4,16
88386,11.7220,-1.7380,2.1910,0.3380,-0.2190,1.2340,33339,31712,4,16
88406,11.8820,-1.6180,2.3340,0.1730,-0.2070,1.4420,33239,31529,-2,4
88426,12.2910,-1.3130,2.5820,-0.0520,-0.2740,1.5880,33199,31427,0,0
