timestamp_ms,ax,ay,az,gx,gy,gz,ir,red,emg_filtered,emg_envelope
43698,1.9600,-9.0370,-4.7080,-0.1090,0.2670,0.0240,30321,32149,3,9
43718,2.4350,-8.9600,-4.3110,-0.0980,0.2650,0.0170,30356,32172,2,4
43739,2.3750,-8.7360,-4.3600,0.0190,0.2520,0.0660,30360,32174,4,16
43759,2.3570,-8.7920,-4.6880,0.0010,0.1660,0.1340,30356,32171,4,16
43779,2.2550,-9.1650,-4.5870,-0.0450,0.0600,0.1790,30338,32151,4,16
43799,1.9210,-9.1300,-4.3800,0.0400,0.0370,0.1300,30317,32124,4,16
43819,1.7260,-9.1300,-3.9780,0.1030,0.0610,0.1450,30299,32111,4,16
43839,1.5800,-8.8370,-3.7240,0.1280,0.0990,0.1030,30283,32103,3,9
43859,1.5410,-8.8600,-3.7660,0.0640,0.0900,0.0960,30267,32096,3,9
43879,1.6260,-8.8020,-3.7550,-0.0000,0.0690,0.1080,30261,32091,4,16
43899,1.9480,-9.1490,-3.7770,-0.0480,0.0610,0.1170,30248,32089,4,16
43920,1.9510,-9.1030,-3.7890,-0.0140,0.0560,0.1030,30235,32081,5,25
43940,1.8610,-9.1630,-3.6830,-0.0110,0.0470,0.0880,30224,32079,3,9
43960,1.6460,-9.0170,-3.6480,0.0190,0.0350,0.0440,30216,32075,4,16
43980,1.5220,-8.9020,-3.5650,0.0490,0.0210,0.0140,30213,32071,5,25
44000,1.4380,-8.8740,-3.4780,0.0860,-0.0010,0.0030,30210,32071,4,16
44020,1.4210,-8.9530,-3.5310,0.1040,-0.0030,-0.0010,30211,32071,4,16
44040,1.3520,-8.8790,-3.6100,0.1000,-0.0000,-0.0030,30209,32069,4,16
44060,1.3050,-8.8990,-3.6560,0.0970,0.0010,0.0020,30207,32076,4,16
44080,1.2760,-8.8510,-3.6140,0.0700,0.0090,-0.0050,30208,32078,4,16
44100,1.3070,-8.8370,-3.7150,-0.0000,0.0060,-0.0110,30215,32081,4,16
44121,1.4080,-8.9330,-3.7190,-0.0180,0.0080,-0.0080,30214,32084,4,16
44141,1.4470,-8.9170,-3.7000,-0.0230,0.0070,-0.0080,30216,32082,4,16
44161,1.4400,-8.9580,-3.6240,-0.0250,0.0000,-0.0130,30222,32088,4,16
44181,1.3670,-8.8240,-3.4800,-0.0310,-0.0030,-0.0190,30229,32093,3,9
44201,1.2390,-8.8880,-3.4490,-0.0540,-0.0060,-0.0130,30228,32095,4,16
44221,1.0440,-8.9540,-3.5190,-0.1190,-0.0110,0.0020,30232,32094,4,16
44241,0.9390,-8.9210,-3.4430,-0.1450,-0.0020,0.0050,30233,32101,3,9
44261,0.8770,-8.8560,-3.2940,-0.1390,0.0130,0.0090,30238,32101,4,16
44281,0.8070,-8.9730,-3.2590,-0.1430,0.0300,0.0100,30240,32105,4,16
44301,0.6620,-8.8000,-3.3720,-0.1310,0.0640,-0.0110,30248,32111,3,9
44322,0.6790,-8.9770,-3.3910,-0.1200,0.0680,-0.0250,30255,32114,4,16
44342,0.6190,-8.8740,-3.3550,-0.1060,0.0630,-0.0540,30260,32109,3,9
44362,0.6570,-8.8430,-3.4020,-0.1400,0.0440,-0.0550,30259,32116,4,16
44382,0.7450,-8.5990,-3.3280,-0.1820,0.0130,-0.0640,30261,32113,4,16
44402,0.8330,-8.8980,-3.4570,-0.2210,-0.0260,-0.0570,30262,32119,4,16
44422,0.8540,-9.0210,-3.6830,-0.2530,-0.0510,-0.0690,30262,32117,4,16
44442,0.9040,-9.0130,-3.9180,-0.2160,-0.0600,-0.0960,30260,32114,4,16
44462,0.9600,-9.3070,-4.2150,-0.1720,-0.0570,-0.1160,30257,32118,3,9
44482,1.0790,-9.4940,-4.3530,-0.1850,-0.0290,-0.1490,30249,32108,4,16
44503,1.1250,-9.3830,-4.3020,-0.1800,-0.0240,-0.1470,30245,32100,4,16
44523,1.0920,-9.1460,-4.1380,-0.1690,-0.0630,-0.1180,30237,32092,4,16
44543,0.8580,-8.9580,-3.7410,-0.0520,-0.1220,-0.0980,30224,32080,4,16
44563,0.4200,-8.7300,-3.3180,0.1330,-0.1720,-0.0990,30206,32053,4,16
44583,0.3170,-9.1220,-3.2000,0.2160,-0.2090,-0.1170,30193,32037,3,9
44603,0.3380,-9.6230,-3.7090,0.2200,-0.2240,-0.1470,30195,32034,3,9
44623,0.3910,-9.7840,-3.8820,0.1870,-0.2010,-0.1220,30209,32047,4,16
44643,0.5110,-9.1710,-3.3880,0.5130,-0.1880,-0.1630,30223,32054,3,9
44663,0.8160,-9.2540,-3.3470,0.8340,-0.1730,-0.2090,30255,32072,4,16
44683,0.4870,-8.2940,-2.5090,1.3160,-0.1210,-0.2930,30232,32018,3,9
44704,0.6640,-8.8770,-3.0290,1.2710,-0.0590,-0.3200,30202,31999,4,16
44724,1.1260,-9.2720,-3.1720,1.1200,-0.0590,-0.3410,30186,31977,3,9
44744,1.9690,-9.2190,-3.2700,1.0840,-0.0600,-0.3240,30179,31956,3,9
44764,2.2270,-9.3490,-3.1330,1.2080,-0.0380,-0.3050,30145,31936,4,16
44784,2.6410,-10.2740,-3.4790,0.9520,0.0040,-0.2450,30144,31943,3,9
44804,2.9470,-9.9950,-3.7400,0.4010,0.0260,-0.2590,30149,31935,3,9
44824,2.8050,-8.9660,-3.3120,0.1020,0.0670,-0.3600,30115,31905,3,9
44844,3.1320,-8.8870,-3.5830,0.0380,0.0560,-0.3520,30073,31885,3,9
44864,3.2910,-8.6440,-3.4430,0.2280,0.0210,-0.3600,30037,31869,4,16
44885,3.4010,-8.9990,-3.7780,0.4030,-0.0090,-0.3380,30023,31864,3,9
44905,4.0590,-9.4120,-2.9310,0.2950,0.0040,-0.2940,30029,31870,4,16
44925,4.0190,-9.3710,-2.4420,0.3630,0.0020,-0.3240,30021,31857,3,9
44945,3.6600,-9.0290,-2.6830,0.4850,0.0060,-0.3380,30001,31867,4,16
44965,3.5570,-8.6720,-2.9200,0.5400,-0.0620,-0.3010,29996,31908,3,9
44985,3.5670,-8.9780,-3.2870,0.4480,-0.1510,-0.2600,30046,32052,3,9
45005,3.8430,-9.4040,-2.9580,0.3510,-0.2030,-0.1860,30130,32194,4,16
45025,4.0490,-9.2090,-2.4240,0.3630,-0.1990,-0.1510,30189,32296,4,16
45045,3.7770,-9.2550,-2.0090,0.5250,-0.1800,-0.1400,30249,32454,4,16
45065,3.4970,-9.0580,-1.6700,0.6180,-0.1440,-0.1400,30755,35396,3,9
45086,3.1890,-8.8240,-1.4500,0.6380,-0.1230,-0.1770,32155,37013,4,16
45106,3.1840,-8.9030,-1.6530,0.6190,-0.1210,-0.2220,32748,37564,4,16
45126,3.4280,-9.2140,-1.3630,0.4890,-0.1110,-0.2530,32855,37575,4,16
45146,3.8020,-9.5150,-0.6280,0.3170,-0.0610,-0.2690,32904,38001,4,16
45166,3.6430,-9.5480,-0.7910,0.2150,-0.0120,-0.2910,33104,38354,4,16
45186,3.2800,-9.0780,-1.2710,0.1420,-0.0300,-0.2650,33012,38344,3,9
45206,3.2850,-9.2510,-1.4280,0.0880,-0.0950,-0.1840,32968,38354,4,16
45226,3.2420,-9.4870,-1.5970,0.2240,-0.1710,-0.1680,32940,38377,3,9
45246,3.4380,-9.6560,-1.0860,0.4360,-0.1670,-0.1900,32846,38339,4,16
45266,3.5030,-10.1040,-0.3200,0.5640,-0.1280,-0.1210,32904,38783,3,9
45287,3.1580,-10.0190,-0.0410,0.6630,-0.0620,-0.1330,33104,39248,3,9
45307,3.0840,-9.4750,-0.2540,0.7250,-0.0220,-0.1390,33070,39061,3,9
45327,3.2500,-9.4020,-0.4360,0.6010,-0.0450,-0.0940,32907,38750,4,16
45347,3.3050,-9.3820,-0.3060,0.4660,-0.0590,-0.0870,32770,38527,4,16
45367,3.4170,-9.5160,-0.2540,0.4580,-0.0520,-0.1310,32680,38393,3,9
45387,3.5850,-8.8870,-0.0050,0.5190,-0.0320,-0.1770,32612,38319,4,16
45407,3.6540,-9.2280,0.0850,0.5010,-0.0480,-0.1700,32642,38716,4,16
45427,3.7100,-8.9840,0.4470,0.4450,-0.0670,-0.1930,33016,39756,4,16
45447,3.9280,-9.8040,-0.1700,0.6680,-0.1020,-0.1970,33422,40451,4,16
45468,3.9790,-10.3290,-0.4240,0.6260,-0.1150,-0.1510,33477,40510,3,9
45488,3.9440,-10.2280,-0.1440,0.2320,-0.1230,-0.0710,33455,40380,4,16
45508,3.5660,-9.7820,0.4580,-0.1140,-0.1160,-0.0470,33411,40260,4,16
45528,3.2960,-9.1230,0.7940,-0.1220,-0.0610,-0.1020,33336,39972,4,16
45548,2.7640,-8.4830,0.1140,-0.0620,-0.0520,-0.1850,33154,39536,4,16
45568,2.8490,-9.0130,-0.0500,-0.1960,-0.0500,-0.1810,33008,39411,4,16
45588,3.0610,-9.1640,0.3040,-0.4870,-0.0290,-0.1580,32927,39190,3,9
45608,3.4150,-9.0730,1.1520,-0.5480,0.0590,-0.1590,32979,39706,4,16
45628,3.4150,-9.1960,0.4980,-0.3440,0.1300,-0.1570,33237,40006,3,9
45648,4.0770,-9.7850,0.3340,-0.2930,0.1840,-0.0450,33356,40043,4,16
45669,4.0040,-9.4520,0.5240,-0.1920,0.1950,0.0110,33298,39941,3,9
45689,3.6260,-9.3160,0.2130,-0.1120,0.2230,0.0790,33209,39595,3,9
45709,3.6630,-9.6820,0.3290,-0.1460,0.2630,0.1640,32950,38983,4,16
45729,3.5490,-9.5770,0.6780,-0.1760,0.3450,0.1970,32628,38184,4,16
45749,3.9640,-8.9400,0.8400,-0.2380,0.4120,0.1750,32304,37672,4,16
45769,3.2480,-11.6070,0.8880,-0.9940,0.4970,0.4430,32306,38000,4,16
45789,3.4900,-10.0130,1.8330,-1.1200,0.6480,0.3610,32473,37753,3,9
45809,3.3580,-10.2650,1.1840,-0.7790,0.7110,0.2840,32281,37787,5,25
45829,3.5670,-9.0670,0.9800,0.0570,0.7920,0.0100,32872,38818,3,9
45850,3.1830,-8.7150,-0.7390,0.7690,0.7290,-0.3230,32855,38534,4,16
45870,2.7800,-7.9640,-0.6320,1.0160,0.6220,-0.5060,32639,38163,3,9
45890,3.2630,-8.0370,0.6780,0.9570,0.5770,-0.5330,32658,38223,3,9
45910,3.9860,-7.0900,0.8860,1.1670,0.5470,-0.6540,32780,38406,4,16
45930,3.5250,-8.4770,-0.6560,1.6540,0.3530,-0.6890,32865,38597,3,9
45950,4.5090,-9.1120,0.2010,0.7110,0.3160,-0.4740,33150,39179,3,9
45970,4.6990,-8.7580,1.2940,0.5860,0.2620,-0.4740,33264,39383,4,16
45990,4.5840,-9.5420,1.9360,0.4150,0.2860,-0.4380,33312,39160,4,16
46010,4.6480,-9.4770,2.0610,0.1930,0.3830,-0.3590,33083,38472,4,16
46030,4.3750,-8.7740,1.5630,0.0400,0.4540,-0.2520,32899,38019,4,16
46051,4.5380,-8.3410,1.5660,0.0720,0.4560,-0.2460,32732,37559,4,16
46071,4.4780,-8.1620,1.3910,0.0890,0.4370,-0.2730,32462,36793,4,16
46091,4.6930,-8.1340,1.4440,-0.0180,0.4700,-0.2570,32028,35817,4,16
46111,4.4240,-8.1380,1.5860,-0.2720,0.4760,-0.1620,31648,35224,3,9
46131,4.4540,-8.3010,1.4500,-0.4030,0.4140,-0.1160,31460,34861,4,16
46151,4.5570,-8.5780,1.3360,-0.3700,0.3510,-0.1030,31414,34924,4,16
46171,4.7510,-8.1990,0.9900,-0.1200,0.2300,-0.1320,31482,35138,4,16
46191,4.7450,-8.1640,1.2510,0.1560,0.0940,-0.1200,31627,35490,4,16
46211,4.1910,-8.3730,1.4630,0.2400,-0.0170,-0.1300,31575,35226,4,16
46231,3.9410,-8.6130,2.2130,0.0820,-0.0300,-0.2260,31300,34734,4,16
46252,3.7880,-9.3050,2.3020,-0.0590,0.0550,-0.2390,31190,34491,3,9
46272,3.3650,-9.4590,2.6620,-0.0870,0.1620,-0.3040,31169,34619,3,9
46292,3.0990,-9.0300,2.3340,0.1100,0.1480,-0.3430,31202,34576,5,25
46312,2.8750,-9.2810,2.3120,0.3700,0.0110,-0.2950,31361,35195,4,16
46332,3.0780,-9.3300,2.3060,0.4430,-0.0100,-0.2720,31712,35784,4,16
46352,3.9120,-8.1630,2.7570,0.6190,0.0090,-0.3560,31899,35861,4,16
46372,4.2700,-8.5080,2.4910,0.4460,0.1090,-0.3610,31847,35869,3,9
46392,4.4870,-8.3650,2.5500,0.0490,0.1430,-0.3320,32115,36484,3,9
46412,4.6950,-8.3730,2.6670,-0.3300,0.2000,-0.2720,32739,37773,3,9
46433,4.5830,-8.4020,2.2770,-0.3210,0.2350,-0.2420,33156,38479,3,9
46453,5.0420,-8.2160,2.3020,-0.0840,0.2680,-0.1570,33302,38402,3,9
46473,5.4470,-8.3610,2.0710,-0.0600,0.2700,-0.0910,33160,37916,3,9
46493,5.3460,-8.1530,2.2460,-0.2340,0.2400,-0.0570,33036,37575,2,4
46513,4.9430,-7.6690,2.0760,-0.3610,0.2050,-0.0640,32844,36945,4,16
46533,4.8140,-7.2220,1.9550,-0.3460,0.0900,-0.0510,32578,36449,3,9
46553,4.7380,-7.2290,2.0990,-0.1950,0.0110,-0.0190,32275,35763,4,16
46573,4.8640,-8.4610,2.0820,-0.1160,-0.0730,0.0300,32049,35309,5,25
46593,5.0170,-8.7380,2.7010,-0.2240,-0.0950,0.1020,31878,35072,4,16
46613,4.6020,-8.9670,2.5800,-0.4940,-0.2200,0.1650,32377,37178,3,9
46634,4.2590,-7.8470,2.7430,-0.2240,-0.1800,0.0420,33340,38959,4,16
46654,4.4590,-8.4130,2.3160,0.0370,-0.1400,0.0550,33835,39456,4,16
46674,4.8040,-8.4580,2.1000,-0.0820,-0.0910,0.1110,33824,39221,3,9
46694,4.5320,-8.2560,2.1980,-0.1380,-0.1030,0.1770,33678,38726,4,16
46714,4.3470,-8.3160,2.1160,-0.0500,-0.1510,0.1840,33435,38080,4,16
46734,4.1050,-8.6240,2.0700,-0.0620,-0.1950,0.2010,33096,37366,3,9
46754,4.3470,-8.6840,1.9150,-0.0990,-0.2150,0.1830,32849,36864,4,16
46774,4.3710,-8.6070,1.6150,-0.0350,-0.2270,0.1800,32548,36034,3,9
46794,4.6080,-8.4290,1.2730,0.0710,-0.2800,0.2490,32148,35196,3,9
46814,4.3050,-8.4810,1.7490,-0.2110,-0.3830,0.3810,31835,35033,3,9
46835,4.2660,-7.8510,2.3950,-0.2350,-0.4150,0.3210,31998,35410,2,4
46855,4.2190,-7.8670,2.5150,-0.0980,-0.4150,0.2240,32186,35996,3,9
46875,4.4130,-8.5100,1.7840,-0.0300,-0.4170,0.1530,32575,36972,3,9
46895,4.4620,-9.4440,0.8860,-0.1080,-0.3840,0.1450,32993,37803,3,9
46915,4.2700,-9.7700,0.6400,-0.1830,-0.2860,0.0590,33157,37667,4,16
46935,4.2490,-10.0540,1.0300,-0.2520,-0.2610,0.0340,32948,37020,3,9
46955,4.3590,-9.6560,1.4380,-0.2770,-0.2620,0.0440,32640,36088,3,9
46975,4.0710,-8.5770,1.3790,-0.2440,-0.2920,0.0220,32292,35459,3,9
46995,4.4040,-8.0130,1.2940,-0.1220,-0.2930,0.0010,31811,34353,4,16
47016,4.4920,-9.1630,0.6790,-0.0600,-0.2830,-0.0050,31424,33520,4,16
47036,4.6120,-9.3570,0.6750,-0.2090,-0.1720,-0.0170,31040,32807,4,16
47056,4.7350,-9.2120,0.4230,-0.1700,-0.1150,-0.0280,30779,32425,4,16
47076,4.8890,-8.7440,0.9210,0.1410,0.0290,-0.0660,30602,32224,4,16
47096,4.9360,-7.9760,1.2020,0.6760,0.0630,-0.0120,30520,32158,4,16
47116,4.7360,-7.9820,1.3280,1.2840,0.1280,0.0350,30518,32158,3,9
47136,4.6750,-7.6320,1.2700,1.7730,0.2320,-0.0840,30554,32167,3,9
47156,5.4180,-7.7600,1.9200,1.7050,0.2410,0.1620,30569,32203,3,9
47176,5.7580,-8.7990,1.3740,1.5810,0.1030,0.2110,30596,32237,3,9
47196,5.1430,-8.6470,1.0380,1.1440,0.1370,0.1910,30574,32256,4,16
47217,4.9110,-7.9500,1.8830,0.8160,0.1610,0.3050,30548,32249,4,16
47237,4.6090,-7.1280,2.7640,1.0150,0.1990,0.3620,30506,32217,4,16
47257,4.0140,-6.6370,3.3790,1.6770,0.2880,0.3410,30435,32180,4,16
47277,3.4850,-7.5150,2.9820,2.2920,0.3330,0.1590,30394,32153,4,16
47297,3.1950,-8.0760,2.9920,2.5090,0.3390,0.0020,30365,32122,4,16
47317,3.3260,-8.5450,4.6200,2.2710,0.3240,-0.0130,30325,32092,3,9
47337,3.3020,-8.8030,5.6380,1.9000,0.2360,-0.1080,30310,32080,3,9
47357,3.1710,-8.1260,5.9970,1.6730,0.1960,-0.3240,30296,32062,4,16
47377,3.1210,-7.4320,5.9830,1.5510,0.1220,-0.4920,30280,32060,4,16
47398,2.7980,-6.7130,5.9900,1.2100,0.0260,-0.5340,30267,32049,4,16
47418,3.0000,-6.2930,6.3720,0.8210,0.0080,-0.4600,30292,32070,4,16
47438,3.7900,-5.5570,7.5970,0.5660,0.0960,-0.5140,30345,32096,3,9
47458,4.1560,-5.3640,7.6410,0.6320,0.1940,-0.6290,30397,32114,4,16
47478,4.2350,-6.1270,6.9640,0.5160,0.1740,-0.6510,30440,32121,4,16
47498,4.2530,-6.3550,7.0650,0.1830,0.1510,-0.5900,30492,32128,4,16
47518,5.2210,-5.5380,7.9040,0.1780,0.2210,-0.5450,30595,32186,4,16
47538,5.0350,-5.3760,7.5130,0.3500,0.3070,-0.4640,30719,32259,3,9
47558,5.2040,-6.5820,6.4820,0.2260,0.2730,-0.3020,30854,32347,2,4
47578,4.8770,-6.0480,6.6480,-0.1210,0.0940,-0.1970,30991,32397,4,16
47599,5.3790,-6.1630,7.2540,-0.2850,0.0860,-0.1260,31068,32452,4,16
47619,5.8680,-5.7010,7.0720,-0.5310,0.1710,-0.0440,31159,32504,4,16
47639,6.1950,-5.5830,5.3000,-0.6770,0.1860,0.0770,31262,32567,4,16
47659,6.0980,-5.0820,4.3960,-0.7110,0.2340,0.1690,31359,32627,4,16
47679,5.9970,-3.4030,4.7290,-0.4030,0.2980,0.2310,31466,32702,4,16
47699,6.0650,-3.4150,4.1140,-0.1910,0.2500,0.3690,31615,32816,4,16
47719,4.9160,-4.3040,4.0990,0.3430,0.2880,0.2710,31809,32975,4,16
47739,4.4500,-4.2220,4.9840,0.2900,0.1960,0.2730,32045,33124,4,16
47759,3.8700,-3.4670,5.4920,-0.0940,-0.2260,0.3660,32242,33267,3,9
47779,2.9220,-6.3230,6.5950,0.4920,-0.1510,-0.3100,32524,33462,4,16
47800,2.6220,-8.7760,8.6350,0.2460,0.1390,-0.2000,32728,33603,3,9
47820,3.3060,-8.6850,10.2800,-0.1040,0.1050,-0.0830,33007,33818,3,9
47840,2.9930,-7.2360,8.8910,-0.5370,-0.0500,-0.1350,33392,34066,3,9
47860,2.2590,-6.2850,5.4580,-0.3790,-0.0710,-0.3920,33700,34247,3,9
47880,2.6200,-6.6120,5.5220,-0.4800,0.0760,-0.2900,33984,34432,3,9
47900,4.3980,-4.9580,6.5800,-0.5670,0.0260,-0.3140,34348,34687,4,16
47920,4.9240,-4.6360,6.2720,-0.4370,-0.0720,-0.3560,34749,34911,4,16
47940,4.6470,-5.1330,4.8790,0.0040,-0.0270,-0.4480,34919,34991,3,9
47960,4.6020,-7.5970,4.7290,0.1040,0.0500,-0.3790,35012,35090,4,16
47981,5.2620,-7.7740,7.7150,-0.3050,0.0710,-0.3380,35134,35213,4,16
48001,4.9480,-8.0740,8.8080,-0.4150,0.1830,-0.3110,35316,35369,4,16
48021,4.5170,-7.3080,7.9420,-0.4470,0.2450,-0.1990,35472,35507,4,16
48041,4.3190,-6.1390,7.1560,-0.3500,0.2240,-0.2350,35579,35583,4,16
48061,4.3980,-6.4780,6.7120,-0.1470,0.2160,-0.3140,35596,35622,4,16
48081,4.5840,-6.2330,6.3140,-0.0680,0.1850,-0.4200,35567,35610,4,16
48101,4.4390,-6.6260,6.6130,-0.0970,0.0650,-0.3620,35448,35484,4,16
48121,4.9810,-6.7220,6.6980,-0.1530,0.1060,-0.3680,35051,35306,4,16
48141,4.8990,-6.2030,6.2210,-0.1110,0.1110,-0.3810,34688,35212,4,16
48161,5.1120,-7.1310,5.7840,-0.0190,0.1380,-0.3090,34239,35107,4,16
48182,5.5310,-6.9770,5.7080,0.0050,0.1080,-0.2740,34180,35115,4,16
48202,5.2190,-6.3150,5.8860,-0.1370,0.0210,-0.1360,34185,35117,3,9
48222,5.0190,-5.8450,5.9760,-0.1140,0.0290,-0.1160,34131,35108,3,9
48242,4.5830,-5.8560,5.8600,-0.1040,0.0750,-0.1410,34202,35177,4,16
48262,3.8730,-6.4420,6.5890,-0.2320,0.0420,-0.0630,34346,35243,4,16
48282,3.8070,-7.0620,8.0450,-0.1750,0.0050,-0.0000,34451,35296,3,9
48302,3.4810,-7.0290,8.2360,-0.0770,-0.0520,0.0010,34478,35277,4,16
48322,2.8410,-6.3460,7.4810,-0.0800,-0.0730,-0.0630,34327,35160,3,9
48342,2.9630,-6.2560,6.7170,0.0370,-0.0940,-0.0210,34095,35055,4,16
48362,3.4450,-6.5780,5.7130,0.1320,-0.1360,0.0560,33949,34986,3,9
48383,3.8180,-6.4160,5.8610,0.1470,-0.0850,0.0450,33902,35009,3,9
48403,4.8540,-6.2690,6.0920,0.1490,0.0040,0.0470,34043,35098,3,9
48423,5.1480,-6.6560,5.8490,0.3040,0.1160,0.0310,34172,35156,3,9
48443,5.1700,-8.1950,5.5750,0.2260,0.3310,0.1910,34289,35243,4,16
48463,5.2280,-7.1990,7.5430,-0.3420,0.3780,0.4680,34476,35318,3,9
48483,5.3530,-6.7900,7.9560,-0.2500,0.6260,0.4860,34565,35387,3,9
48503,5.3890,-6.9700,7.9080,-0.2490,0.7820,0.5860,34739,35486,3,9
48523,5.3930,-6.6330,8.7450,-0.2670,0.7970,0.6420,34860,35537,4,16
48543,4.5570,-5.6310,8.3560,0.1610,0.7050,0.4000,34692,35321,4,16
48564,3.5120,-4.9400,6.2380,0.3890,0.5460,0.1820,34079,34893,4,16
48584,2.4590,-3.6240,3.0980,-0.0290,0.1520,0.0320,33268,34529,4,16
48604,2.4950,-2.4330,3.8410,-0.2680,-0.1590,-0.1080,32732,34365,4,16
48624,3.5030,-3.3820,6.2450,0.2560,-0.1720,-0.2110,32512,34315,4,16
48644,3.7730,-5.6860,6.6180,0.6270,-0.2320,-0.3210,32410,34251,4,16
48664,3.9050,-7.0230,7.1180,0.8210,-0.3660,-0.4840,32146,34047,3,9
48684,3.9400,-7.6660,5.1260,0.4890,-0.5420,-0.4600,31729,33787,4,16
48704,4.4400,-5.3560,5.3940,0.0670,-0.6670,-0.5230,31358,33507,4,16
48724,4.1800,-5.1210,6.7300,0.4310,-0.5630,-0.4620,31075,33267,4,16
48744,5.4350,-7.3350,7.5510,0.8160,-0.1270,-0.2210,30717,32956,3,9
48765,5.1000,-6.3850,7.8870,0.4680,-0.1750,-0.2290,30553,32762,3,9
48785,4.7720,-5.9400,7.4930,0.3820,-0.1300,-0.2300,30311,32471,3,9
48805,4.0920,-4.9270,6.1690,0.2330,-0.1140,-0.2160,29915,32452,4,16
48825,4.4940,-3.4280,6.2260,0.2290,-0.2660,-0.1870,29738,32526,3,9
48845,4.4360,-4.2050,6.3610,0.5180,-0.2940,-0.1880,29564,32633,4,16
48865,4.3480,-4.7570,6.4690,0.5370,-0.3100,-0.1310,29381,32763,4,16
48885,5.4470,-4.8390,6.8170,0.5710,-0.2380,-0.0550,29225,32775,4,16
48905,5.1740,-4.9700,6.8670,0.5410,-0.1580,-0.0060,29104,32870,5,25
48925,5.5190,-4.6480,6.3110,0.3310,-0.0450,0.1550,29060,33205,2,4
48946,5.5100,-4.5440,6.3780,0.3540,-0.0070,0.1440,29035,33339,2,4
48966,5.6530,-5.1440,6.0850,0.2500,-0.0110,0.2160,29078,33209,4,16
48986,6.1400,-5.1340,6.5360,0.0550,-0.0200,0.2510,29159,32923,4,16
49006,5.9320,-4.8910,7.0280,-0.1080,0.0430,0.3020,29259,32638,5,25
49026,5.4560,-4.3360,7.2380,-0.2240,0.1570,0.3940,29478,32537,3,9
49046,5.0310,-3.4080,7.2320,-0.3260,0.1630,0.4950,29712,32539,3,9
49066,4.9390,-3.4910,7.0890,-0.2990,0.1490,0.4330,29831,32557,3,9
49086,4.5720,-3.9780,7.2420,-0.3000,0.0800,0.3480,29921,32612,3,9
49106,4.5830,-4.1410,7.9580,-0.2380,-0.0070,0.2790,29988,32665,3,9
49126,4.4810,-4.6350,7.9940,-0.0190,-0.0470,0.1590,30061,32724,4,16
49147,4.3000,-4.4180,6.7180,0.0370,-0.1540,0.2170,30078,32717,4,16
49167,4.0410,-3.8630,6.8750,0.1220,-0.1900,0.2380,30058,32708,3,9
49187,4.0870,-3.9460,7.1140,0.1400,-0.2930,0.3420,30056,32708,3,9
49207,4.4800,-4.4520,7.2750,0.1650,-0.3570,0.3870,30023,32666,3,9
49227,5.0910,-4.8890,7.0640,0.3610,-0.2580,0.2490,29989,32669,3,9
49247,5.0950,-4.7480,6.0790,0.0960,-0.2930,0.2160,30015,32700,3,9
49267,5.0220,-5.3940,5.9030,-0.2910,-0.3850,0.3810,30043,32765,4,16
49287,5.3000,-4.9250,7.1010,-0.3650,-0.3690,0.4530,30094,32799,4,16
49307,5.0310,-5.0640,7.3300,-0.2580,-0.3640,0.5870,30095,32790,3,9
49327,4.4930,-5.5950,7.2170,0.0530,-0.1830,0.3010,30070,32806,3,9
49348,4.4580,-5.9410,7.2440,0.1030,-0.1870,0.2630,30092,32841,3,9
49368,4.3950,-6.2840,7.3170,-0.0390,-0.2070,0.3750,30099,32836,3,9
49388,4.8040,-6.7010,7.5440,-0.3010,-0.1890,0.5940,30060,32801,4,16
49408,4.9360,-6.3880,7.8630,-0.4610,-0.0930,0.6180,30028,32791,4,16
49428,4.6220,-5.5680,7.6110,-0.4400,-0.0120,0.5690,30013,32785,3,9
49448,4.7610,-5.1210,7.2440,-0.3240,0.0570,0.5090,30011,32801,3,9
49468,4.9550,-5.6300,6.6950,-0.4610,0.1150,0.4970,30026,32818,4,16
49488,4.7180,-5.5200,6.3250,-0.8670,0.0990,0.5380,30040,32837,3,9
49508,4.5970,-5.3380,6.9960,-1.3370,-0.0160,0.5800,30084,32882,3,9
49529,4.8900,-5.2040,7.1840,-1.3230,-0.0280,0.4770,30120,32908,4,16
49549,4.6460,-5.3740,6.9120,-0.9700,0.2200,0.2220,30143,32933,4,16
49569,4.9010,-5.6010,7.0310,-0.9360,0.4020,0.1540,30179,32978,3,9
49589,5.2060,-6.1670,6.9850,-1.0950,0.5190,0.2210,30224,33021,4,16
49609,5.6890,-6.8630,6.6220,-1.3020,0.6020,0.2530,30262,33053,4,16
49629,5.2950,-6.8470,6.0530,-1.5200,0.6290,0.2310,30285,33071,3,9
49649,5.0060,-6.5550,5.3380,-1.5580,0.5890,0.1810,30301,33086,4,16
49669,4.7930,-6.3830,5.0000,-1.4850,0.5480,0.1390,30315,33099,4,16
49689,4.7740,-6.5060,4.9560,-1.3710,0.5160,0.1070,30327,33113,3,9
49709,4.0670,-6.6500,4.5940,-1.1300,0.4000,0.0040,30335,33126,4,16
49730,4.1470,-6.7960,4.6080,-0.8960,0.3230,-0.1050,30341,33127,3,9
49750,3.7470,-6.8950,3.9110,-0.6240,0.2580,-0.2700,30326,33112,4,16
49770,3.4680,-7.2870,3.6280,-0.4760,0.2170,-0.3780,30304,33096,4,16
49790,3.4080,-7.6350,3.7170,-0.4310,0.1160,-0.4140,30288,33080,4,16
49810,3.5020,-7.6830,3.8820,-0.4030,0.0160,-0.4260,30287,33074,4,16
49830,3.6510,-7.6990,4.2280,-0.2890,0.0120,-0.4180,30271,33061,4,16
49850,3.6500,-8.2180,3.9060,-0.2120,-0.0020,-0.4130,30254,33051,3,9
49870,3.5060,-8.2090,3.8130,-0.2040,0.0070,-0.4370,30239,33035,3,9
49890,3.6560,-7.9930,4.0710,-0.1650,0.0090,-0.4430,30223,33025,3,9
49910,3.7730,-7.8960,3.7980,-0.0690,0.0430,-0.4880,30207,33008,4,16
49931,4.1060,-8.3090,3.7450,-0.1460,0.0610,-0.4820,30194,32996,4,16
49951,4.0630,-8.3400,3.6320,-0.3140,0.0470,-0.4750,30187,32993,3,9
49971,4.2200,-8.2720,3.6950,-0.4010,0.0650,-0.4500,30181,32990,4,16
49991,4.4650,-8.1060,3.9230,-0.3510,0.0690,-0.4340,30178,32988,3,9
50011,4.7030,-8.1920,3.6950,-0.2420,0.0420,-0.4070,30183,32986,4,16
50031,4.8810,-8.3930,3.3160,-0.2050,0.0020,-0.3630,30180,32985,4,16
50051,5.1280,-8.7110,3.0180,-0.2450,-0.0890,-0.2900,30180,32990,4,16
50071,5.1580,-8.6680,3.1170,-0.2840,-0.2080,-0.2000,30180,32988,4,16
50091,5.1940,-8.2890,3.1690,-0.1090,-0.3570,-0.1380,30168,32982,4,16
50112,5.4740,-8.3590,2.9220,0.0720,-0.4630,-0.1210,30170,32980,3,9
50132,5.7450,-8.4950,2.8600,0.2050,-0.5870,-0.1230,30170,32986,4,16
50152,5.8910,-8.5190,2.9650,0.2770,-0.7510,-0.1130,30171,32987,3,9
50172,5.8810,-8.2820,2.5440,0.2860,-0.9260,-0.0940,30174,32989,4,16
50192,5.9760,-8.0720,2.3810,0.2910,-1.0780,-0.0660,30175,32990,3,9
50212,6.1020,-7.7690,2.5530,0.3470,-1.2290,-0.0350,30177,32998,4,16
50232,6.1420,-7.4050,2.8720,0.4510,-1.4010,-0.0380,30189,33001,4,16
50252,6.1330,-7.1960,3.0840,0.5130,-1.5800,-0.0670,30189,32995,4,16
50272,5.8910,-7.0440,2.9350,0.4880,-1.7420,-0.1060,30184,32984,3,9
50292,5.4430,-6.7780,3.2780,0.4740,-1.8590,-0.1620,30165,32946,3,9
50313,5.2670,-6.7370,3.2530,0.5630,-1.8260,-0.2210,30137,32906,4,16
50333,5.4900,-6.8410,3.4450,0.6370,-1.7750,-0.2860,30105,32876,3,9
50353,5.8660,-6.9110,3.8950,0.6780,-1.7210,-0.3540,30088,32859,4,16
50373,6.1400,-7.0380,4.0110,0.6470,-1.6970,-0.4290,30082,32851,4,16
50393,6.4190,-6.8400,4.4990,0.6140,-1.6510,-0.4930,30078,32838,4,16
50413,6.1780,-6.6280,4.1990,0.6070,-1.5800,-0.5270,30067,32821,3,9
50433,6.2630,-6.6450,4.0320,0.5740,-1.4220,-0.4980,30044,32786,4,16
50453,6.5460,-6.8020,4.1100,0.5540,-1.2190,-0.4680,30016,32756,4,16
50473,7.0210,-7.0090,4.2400,0.4610,-0.9440,-0.4330,29999,32749,3,9
50494,7.1380,-6.6550,4.3130,0.3390,-0.7660,-0.3850,29988,32726,4,16
50514,7.0580,-6.2540,4.3790,0.2130,-0.6290,-0.3270,29977,32718,4,16
50534,7.0680,-6.0360,4.4020,0.0990,-0.5070,-0.2690,29971,32714,4,16
50554,7.0070,-5.9120,4.3650,-0.0100,-0.3740,-0.2570,29960,32700,4,16
50574,6.8500,-5.8300,4.1370,-0.1430,-0.2500,-0.2760,29955,32697,3,9
50594,6.6850,-5.7750,4.0150,-0.2880,-0.1110,-0.2790,29952,32685,4,16
50614,6.5840,-5.7320,3.9890,-0.4080,0.0340,-0.2740,29935,32670,3,9
50634,6.4930,-5.6770,3.9720,-0.5140,0.1540,-0.2620,29932,32666,4,16
50654,6.4870,-5.6830,3.9520,-0.5890,0.2480,-0.2170,29916,32659,4,16
50674,6.6730,-5.8070,3.9120,-0.6130,0.3750,-0.1770,29905,32647,3,9
50695,6.7780,-5.8540,3.8250,-0.5780,0.4590,-0.1710,29893,32637,4,16
50715,6.9730,-5.9880,3.7600,-0.5250,0.5340,-0.1630,29890,32630,3,9
50735,7.1040,-6.0840,3.6830,-0.4870,0.5910,-0.1590,29880,32625,4,16
50755,7.4100,-6.2960,3.6720,-0.4720,0.6340,-0.1400,29878,32619,4,16
50775,7.6180,-6.3990,3.5090,-0.4740,0.6620,-0.1280,29874,32620,4,16
50795,7.6450,-6.3910,3.2810,-0.4900,0.6760,-0.0980,29870,32621,4,16
50815,7.5620,-6.2400,3.1830,-0.5100,0.6840,-0.0410,29865,32612,4,16
50835,7.4700,-6.0060,3.1150,-0.4920,0.6520,-0.0070,29849,32603,3,9
50855,7.4620,-5.9880,3.0690,-0.4560,0.5920,0.0090,29847,32603,4,16
50875,7.4390,-6.0750,2.8290,-0.3680,0.4880,-0.0120,29839,32600,3,9
50896,7.4090,-6.0590,2.6720,-0.2990,0.4030,-0.0180,29830,32597,4,16
50916,7.3000,-5.9930,2.4670,-0.2410,0.2940,-0.0070,29830,32605,4,16
50936,7.3000,-6.1710,2.4420,-0.1710,0.1960,0.0220,29829,32610,3,9
50956,7.2800,-6.2660,2.4950,-0.1080,0.1130,0.0390,29827,32608,4,16
50976,7.2330,-6.2250,2.5680,-0.0450,0.0270,0.0500,29830,32612,4,16
50996,7.1080,-6.1810,2.5890,0.0110,-0.0610,0.0600,29824,32616,4,16
51016,7.0940,-6.2140,2.6320,0.0580,-0.1320,0.0630,29823,32619,4,16
51036,7.0320,-6.2820,2.5850,0.0540,-0.1820,0.0580,29828,32628,3,9
51056,6.9830,-6.1330,2.7150,0.0230,-0.2220,0.0790,29832,32634,3,9
51077,6.9180,-6.0380,2.8780,0.0270,-0.2300,0.0930,29836,32642,3,9
51097,6.8550,-6.0230,3.0050,0.0300,-0.2210,0.1070,29841,32653,3,9
51117,6.8010,-5.9210,3.0420,0.0100,-0.2150,0.0950,29849,32665,4,16
51137,6.7580,-5.8870,2.9420,-0.0510,-0.1980,0.0800,29853,32670,4,16
51157,6.7250,-5.7800,2.9040,-0.1300,-0.1780,0.0510,29859,32674,4,16
51177,6.6640,-5.6610,2.9040,-0.2200,-0.1430,0.0310,29865,32670,4,16
51197,6.6760,-5.6690,2.9270,-0.2940,-0.1260,0.0090,29862,32667,4,16
51217,6.7270,-5.7320,2.9600,-0.3490,-0.1120,-0.0430,29863,32667,4,16
51237,6.8520,-5.9860,2.8550,-0.4330,-0.1180,-0.0830,29865,32674,3,9
51257,6.9170,-6.2620,2.7590,-0.4880,-0.1510,-0.1440,29880,32688,4,16
51278,7.2020,-6.2270,2.7880,-0.5670,-0.2030,-0.1110,29886,32686,4,16
51298,7.3730,-6.0620,2.6870,-0.4170,-0.2980,-0.0710,29891,32680,4,16
51318,7.2950,-6.7610,2.4250,-0.1770,-0.3530,-0.0830,29879,32660,4,16
51338,7.5320,-7.3990,2.3830,-0.1520,-0.3480,-0.1420,29874,32662,4,16
51358,7.7320,-7.4830,2.5590,-0.1690,-0.3430,-0.2440,29884,32666,3,9
51378,7.7360,-7.1370,2.6280,-0.0630,-0.4020,-0.2510,29885,32656,4,16
51398,7.8490,-7.3040,2.5790,-0.1100,-0.4430,-0.0930,29878,32634,3,9
51418,7.6510,-6.7830,2.4920,-0.0150,-0.4400,0.0240,29862,32605,4,16
51438,7.2590,-6.6890,2.0900,0.1380,-0.4050,0.1410,29848,32571,4,16
51458,7.0680,-5.8650,2.2610,0.2410,-0.3010,0.1090,29827,32537,3,9
51479,7.1070,-5.6280,2.2830,0.3720,-0.2650,0.0750,29816,32519,3,9
51499,7.3810,-6.2000,2.2060,0.3610,-0.2180,0.0990,29803,32498,4,16
51519,7.4880,-6.6620,1.8690,0.3380,-0.1920,0.0670,29781,32466,4,16
51539,7.2860,-7.0220,1.4620,0.2970,-0.1200,-0.0020,29758,32435,4,16
51559,7.4960,-6.6650,1.9510,0.2570,-0.0080,-0.0500,29727,32404,4,16
51579,8.0480,-6.6930,2.4880,0.2700,0.0460,0.0440,29692,32360,4,16
51599,7.8820,-6.6430,2.2650,0.2360,0.0340,0.1130,29608,32280,3,9
51619,7.9670,-6.7940,1.9720,0.2040,0.0270,0.2100,29458,32114,4,16
51639,7.3850,-6.2680,1.3990,0.1540,0.0390,0.1820,29164,32134,3,9
51660,7.0650,-5.8690,1.2200,0.1960,0.0360,0.1800,29164,32457,3,9
51680,7.3130,-6.2000,1.4760,0.1850,0.0070,0.2520,29187,32684,4,16
51700,7.6760,-6.5720,1.6630,0.1240,-0.0090,0.2840,29296,33094,3,9
51720,7.7670,-6.7660,1.5710,0.0440,-0.0620,0.2600,29446,33175,3,9
51740,7.6610,-6.7760,1.4280,-0.0810,-0.1130,0.2420,29465,33088,4,16
51760,7.5700,-6.8030,1.2250,-0.2670,-0.1330,0.2360,29457,32826,4,16
51780,7.5870,-6.7350,1.4200,-0.4260,-0.1400,0.2610,29475,32611,3,9
51800,7.7820,-6.7440,1.5860,-0.3670,-0.1950,0.3000,29575,32555,3,9
51820,7.7060,-6.8210,1.3240,-0.2290,-0.2410,0.2880,29678,32568,4,16
51840,7.5450,-7.1960,0.8760,-0.0430,-0.2230,0.2790,33233,32611,3,9
51861,7.5390,-7.1070,1.0760,0.1130,-0.2020,0.2280,33299,32628,3,9
51881,7.6200,-7.1110,1.0300,0.2870,-0.2130,0.1810,33346,32641,3,9
51901,7.3230,-7.1560,0.5280,0.3270,-0.2420,0.1510,33377,32646,3,9
51921,6.9600,-6.9110,0.1220,0.2740,-0.2770,0.1210,33396,32651,3,9
51941,6.7840,-6.6870,0.0790,0.1750,-0.3230,0.1480,33400,32654,4,16
51961,6.6510,-6.7500,0.2150,0.0860,-0.3670,0.2040,33413,32663,3,9
51981,6.7250,-6.4930,0.4960,0.0300,-0.4230,0.1720,33405,32666,3,9
52001,6.6420,-6.2720,0.6900,0.0270,-0.4680,0.0870,33397,32663,4,16
52021,6.4400,-6.0740,0.7510,0.0310,-0.5040,-0.0980,33387,32664,4,16
52042,6.4240,-5.9060,0.7880,0.0420,-0.5290,-0.2450,33380,32664,4,16
52062,6.6090,-5.9410,0.8060,0.0370,-0.5450,-0.3590,33381,32670,3,9
52082,6.7760,-6.0020,0.8750,0.0170,-0.5300,-0.4710,33380,32669,4,16
52102,6.8020,-5.6920,1.0190,-0.0060,-0.5130,-0.5560,33380,32673,4,16
52122,6.9010,-5.2710,1.1740,-0.0170,-0.5240,-0.5960,33391,32679,4,16
52142,6.9070,-5.0410,1.0670,-0.0650,-0.5460,-0.6310,33380,32665,4,16
52162,7.0740,-5.0040,0.9620,-0.1280,-0.5310,-0.7420,33363,32648,4,16
52182,7.3090,-4.9000,0.9650,-0.2270,-0.4750,-0.9120,33342,32630,4,16
52202,7.7270,-4.6390,1.1370,-0.2120,-0.3860,-1.1040,33322,32616,3,9
52222,8.5470,-4.1810,1.1950,0.1000,-0.2480,-1.3990,33290,32596,4,16
52243,9.4690,-5.0040,1.0690,0.2610,-0.1580,-1.5100,33279,32589,4,16
52263,9.9200,-5.2520,0.9710,0.2810,-0.0540,-1.6070,33273,32591,3,9
52283,9.9960,-4.9560,0.8320,0.1600,0.0070,-1.6190,33273,32592,3,9
52303,9.8550,-4.4660,0.6060,-0.1340,0.0070,-1.5160,33280,32598,4,16
52323,9.8220,-4.1230,0.8770,-0.4080,-0.0150,-1.3830,33292,32602,3,9
52343,10.8370,-5.0590,1.6510,-0.5950,0.0440,-1.2420,33289,32598,4,16
52363,11.4080,-5.6740,2.0830,-0.5900,0.2200,-1.2210,33263,32594,4,16
52383,11.4410,-5.7570,2.0720,-0.4460,0.3730,-1.1650,33258,32595,4,16
52403,10.9850,-5.5780,1.8400,-0.3120,0.4600,-0.8960,33260,32601,4,16
52423,10.5550,-6.7850,1.7550,-0.4350,0.5520,-0.2080,33275,32613,4,16
52444,9.9570,-7.1600,2.1520,-0.7220,0.6360,0.2300,33284,32621,3,9
52464,9.6140,-7.4090,2.3950,-1.0350,0.7350,0.6290,33287,32622,4,16
52484,9.2250,-7.5900,2.3250,-1.3260,0.8240,0.9880,33287,32620,4,16
52504,8.8170,-7.6710,2.0950,-1.6560,0.8880,1.3520,33288,32622,3,9
52524,8.8780,-8.2620,2.1210,-1.9760,0.9280,1.8200,33294,32623,3,9
52544,8.8300,-8.6320,1.9000,-2.2320,0.9340,2.2200,33284,32624,3,9
52564,8.8750,-8.7100,1.6580,-2.3030,0.9410,2.4450,33289,32634,4,16
52584,8.7120,-8.1730,1.4820,-2.1070,0.9400,2.5390,33293,32637,3,9
52604,8.5280,-7.8650,1.1850,-1.4330,0.8530,2.6710,33309,32656,3,9
52625,8.4100,-8.0300,0.6190,-1.1000,0.7280,2.7630,33323,32672,4,16
52645,8.1400,-8.0800,0.2590,-0.9690,0.5790,2.8270,33335,32679,3,9
52665,7.5840,-7.5820,0.0850,-0.9290,0.4120,2.8550,33345,32681,3,9
52685,6.9900,-7.2870,0.0500,-0.7990,0.2480,2.8010,33342,32682,4,16
52705,6.5310,-7.3860,0.0000,-0.7430,0.1050,2.7170,33346,32685,4,16
52725,5.8420,-6.7100,0.0310,-0.6980,-0.0240,2.5510,33352,32687,4,16
52745,5.1640,-6.5240,0.0320,-0.5930,-0.1320,2.4160,33351,32692,3,9
52765,4.7810,-6.7430,0.1570,-0.5560,-0.2030,2.3270,33359,32695,4,16
52785,4.3950,-6.8670,0.3830,-0.4640,-0.2730,2.1870,33362,32690,4,16
52805,3.4930,-6.4160,0.8030,0.0820,-0.2490,1.7880,33348,32685,4,16
52826,3.1930,-7.1010,0.5450,0.4980,-0.1920,1.5770,33346,32686,4,16
52846,3.1210,-7.9300,0.0140,0.4880,-0.1930,1.4230,33366,32705,4,16
52866,3.1030,-8.5800,-0.1200,0.0920,-0.2520,1.3320,33394,32726,3,9
52886,3.1020,-8.3330,0.3830,-0.3180,-0.3300,1.2850,33422,32740,4,16
52906,2.8080,-7.6360,0.8010,-0.3230,-0.3960,1.1670,33427,32744,4,16
52926,2.8620,-7.8250,0.9620,-0.0600,-0.4120,1.0400,33427,32756,4,16
52946,2.4440,-7.8650,1.1770,0.3020,-0.3710,0.8500,33426,32764,4,16
52966,2.3460,-8.3460,1.0250,0.4850,-0.3420,0.7360,33448,32779,4,16
52986,2.4110,-9.0440,0.9250,0.3220,-0.3350,0.7220,33468,32804,4,16
53006,2.3890,-8.4060,1.9080,-0.0350,-0.3050,0.6260,33479,32816,4,16
53027,1.8390,-7.8290,1.7190,0.1260,-0.2920,0.5370,33470,32807,4,16
53047,1.5620,-7.2710,1.7190,0.5980,-0.2080,0.3420,33475,32808,3,9
53067,1.8080,-8.4060,1.9070,1.1460,-0.0910,0.3020,33488,32818,3,9
53087,2.0550,-9.9340,1.4110,1.1000,-0.0980,0.3500,33512,32835,4,16
53107,2.0580,-10.5910,1.2370,0.4880,-0.1760,0.4020,33536,32847,3,9
53127,1.0280,-9.7730,1.3540,-0.2120,-0.2810,0.3920,33542,32865,3,9
53147,0.9880,-8.5580,1.6210,-0.3170,-0.2850,0.2790,33617,32935,4,16
53167,0.6120,-9.4320,1.9600,0.0510,-0.0840,0.1480,33753,33039,4,16
53187,0.9700,-9.6470,1.6890,0.3540,0.1460,0.3300,34066,33275,4,16
53208,0.8250,-10.0010,1.1770,0.1120,0.1460,0.5020,34410,33494,3,9
53228,0.4320,-11.3150,1.2800,-0.2160,0.0930,0.6390,34827,33789,4,16
53248,0.8210,-11.4990,1.1560,-0.5570,0.1070,0.5360,35386,34173,4,16
53268,0.3940,-10.5560,1.1260,-0.8110,0.1750,0.5270,36116,34620,3,9
53288,0.7420,-11.0130,1.3220,-0.9540,0.3390,0.7630,37120,35235,3,9
53308,0.7850,-11.4000,0.6430,-1.2160,0.4220,0.8110,38388,35883,4,16
53328,0.4810,-10.5300,0.1800,-1.5360,0.3930,0.8180,39596,36430,3,9
53348,0.5150,-4.2220,-1.0630,-1.7150,0.1250,0.2830,40509,36766,4,16
53368,-0.0970,-10.1780,-0.7900,-1.8180,-0.0500,-0.0370,41409,37094,3,9
53388,0.2850,-9.2840,-0.5630,-1.4940,-0.0480,0.6720,42753,37812,4,16
53409,0.2990,-8.8690,-1.1830,-1.3500,-0.1450,0.4500,43052,38220,4,16
53429,-0.0750,-9.4540,-1.5040,-1.3380,-0.2640,-0.0400,43307,39357,4,16
53449,-0.1400,-8.7460,-1.3870,-1.3080,-0.2280,0.0030,43347,39242,4,16
53469,0.0780,-6.5580,-1.8390,-1.0250,-0.2580,0.3630,43051,39350,4,16
53489,0.0320,-9.4590,-2.4340,-0.8880,-0.2820,0.3670,43918,39237,4,16
53509,-0.3280,-8.2610,-2.6020,-0.8760,-0.2840,0.2280,43798,39052,4,16
53529,-0.2150,-8.0350,-2.3310,-0.7350,-0.2250,-0.0640,44005,38894,4,16
53549,-0.3110,-8.1510,-2.0140,-0.3290,-0.0820,-0.1720,44247,38831,3,9
53569,-0.4660,-8.9630,-2.6440,0.8150,-0.0190,-0.2130,44526,38895,3,9
53591,-0.7070,-9.9830,-2.4490,1.3500,-0.0880,-0.2540,44641,38989,4,16
53611,0.1420,-11.2670,-2.0670,1.2270,-0.0130,-0.1800,44794,39119,3,9
53631,0.4140,-11.0290,-1.5680,0.9020,0.1430,-0.2180,44953,39251,4,16
53651,-0.4980,-9.6470,-1.9600,0.7590,0.2590,-0.3340,45092,39359,4,16
53671,-0.5100,-9.5970,-1.4480,0.8120,0.2510,-0.2620,45191,39457,4,16
53691,-0.2170,-10.0010,-1.1840,0.9160,0.3090,0.2290,45316,39581,4,16
53711,-0.5170,-8.6080,-1.7130,0.7860,0.1470,0.2340,45491,39717,4,16
53731,-0.1980,-9.8210,-0.7530,0.6180,0.0700,-0.0170,45686,39845,4,16
53751,-0.6730,-9.4690,-0.5080,0.6400,0.1200,0.1350,46009,40023,4,16
53772,-1.0470,-8.8590,-0.7330,0.5240,0.1680,0.2040,46166,40110,4,16
53792,-0.4720,-9.1650,-0.7520,0.3680,0.1690,-0.0510,46275,40180,4,16
53812,-0.4270,-9.8500,-0.3990,0.3800,0.1590,-0.1480,46384,40252,4,16
53832,-0.5900,-9.8390,-0.3350,0.3300,0.1310,-0.1220,46517,40327,3,9
53852,-0.6340,-9.7490,-0.3910,0.2130,0.0770,-0.0830,46628,40391,3,9
53872,-0.5760,-9.7680,-0.1620,0.1950,0.0060,-0.0910,46690,40434,4,16
53892,-0.7630,-9.6410,-0.0780,0.2470,-0.0660,-0.1720,46713,40461,4,16
53912,-0.7150,-9.6730,-0.5600,0.2230,-0.1260,-0.2000,46738,40485,3,9
53932,-0.9770,-9.9380,-0.3870,0.1380,-0.1490,-0.2920,46751,40500,4,16
53952,-0.8270,-9.6920,-0.0650,0.0420,-0.1640,-0.2540,46772,40515,2,4
53973,-0.6440,-9.3330,0.0240,0.0460,-0.2050,-0.2640,46769,40519,3,9
53993,-0.4440,-9.6860,0.3970,0.2190,-0.1800,-0.3630,46763,40519,4,16
54013,-0.5270,-10.0130,0.4530,0.4600,-0.0820,-0.2930,46760,40522,3,9
54033,-0.3830,-10.3050,0.4370,0.8220,0.1890,-0.2600,46769,40535,4,16
54053,0.1890,-10.5180,1.2020,1.2210,0.4470,-0.2510,46790,40555,5,25
54073,0.7450,-10.9220,1.9520,1.2700,0.4190,-0.3270,46819,40579,3,9
54093,1.1540,-10.9100,1.6660,1.1510,0.3110,-0.4110,46845,40595,4,16
54113,0.0080,-9.4080,1.1480,0.9080,0.1860,-0.4970,46848,40585,3,9
54133,-0.1100,-8.2830,1.7140,0.8780,0.2050,-0.2840,46804,40555,4,16
54154,1.9660,-7.9550,3.0050,1.1280,0.2840,-0.5090,46749,40526,4,16
54174,0.9160,-8.8620,4.1710,1.7110,0.5070,-0.8550,46657,40485,4,16
54194,0.9620,-8.9690,3.7900,1.6600,0.4520,-0.9710,46561,40444,4,16
54214,0.3630,-8.2460,2.6910,1.3900,0.3100,-1.0920,46447,40387,4,16
54234,0.1280,-6.9720,2.7090,1.5690,0.4510,-1.2640,46317,40329,3,9
54254,0.9500,-7.5670,3.3530,2.0230,0.6340,-1.3280,46235,40307,4,16
54274,1.8790,-8.3220,3.8790,2.1160,0.6210,-1.3770,46184,40279,4,16
54294,2.4220,-8.8410,3.9550,1.8830,0.4750,-1.5070,46118,40240,3,9
54314,2.6080,-9.7180,3.2810,1.4000,0.2450,-1.5150,46030,40187,3,9
54334,2.2970,-7.6430,3.1300,0.7740,-0.0630,-1.5770,45855,40091,5,25
54355,2.6280,-7.6550,3.9190,1.1910,0.0220,-1.3700,45781,40058,4,16
54375,3.3220,-7.7140,4.9620,1.5310,0.0850,-1.2110,45730,40026,2,4
54395,4.1600,-8.2110,5.6730,1.7220,0.1180,-1.1520,45675,39990,3,9
54415,4.5200,-7.4710,6.1240,1.5790,0.1120,-1.1810,45628,39953,4,16
54435,3.7540,-5.9520,5.8140,1.4090,0.0420,-1.1600,45571,39910,4,16
54455,3.6070,-4.3630,6.0600,1.2800,0.0220,-1.0570,45520,39880,4,16
54475,4.4600,-5.5390,7.0250,1.1190,-0.0320,-0.9410,45495,39869,4,16
54495,5.7480,-7.3740,7.4280,0.5690,-0.0930,-0.8020,45489,39865,4,16
54515,5.6740,-8.1700,6.9830,0.0210,-0.1570,-0.8580,45471,39837,4,16
54535,4.4140,-7.0190,6.0570,-0.3670,-0.2670,-0.6630,45420,39806,3,9
54556,3.9440,-5.8370,5.7870,-0.0700,-0.1870,-0.4020,45395,39782,3,9
54576,3.6670,-5.6460,5.8670,0.5390,-0.1010,-0.2670,45369,39770,4,16
54596,3.9580,-6.2720,6.2510,0.7770,-0.0920,-0.4280,45340,39755,3,9
54616,3.9090,-6.0140,6.4280,0.8100,-0.1020,-0.4180,45312,39736,4,16
54636,3.9490,-6.6200,6.1290,0.2970,-0.3020,-0.3530,45285,39718,3,9
54656,4.0790,-6.2170,6.4490,-0.2790,-0.3860,-0.2810,45256,39703,4,16
54676,3.9910,-5.4620,6.7680,-0.4110,-0.3740,-0.1780,45228,39690,3,9
54696,3.8560,-5.2030,6.8500,-0.3370,-0.3500,-0.1440,45199,39676,4,16
54716,3.7280,-5.6250,6.9190,-0.2670,-0.2860,-0.2110,45173,39664,4,16
54737,3.7280,-5.7740,6.8530,-0.2390,-0.2630,-0.2510,45158,39654,4,16
54757,3.8460,-5.8410,6.6140,-0.2210,-0.2840,-0.3060,45151,39642,4,16
54777,3.8310,-5.7210,6.4450,-0.1670,-0.3120,-0.3270,45135,39630,4,16
54797,4.0620,-6.0320,6.1890,-0.0970,-0.3240,-0.2500,45113,39624,4,16
54817,4.2520,-6.2900,6.2460,-0.0660,-0.3140,-0.2420,45098,39606,4,16
54837,4.2810,-6.5160,6.5170,-0.0020,-0.3110,-0.2520,45067,39595,4,16
54857,4.5970,-6.3280,6.4860,0.0500,-0.2740,-0.0570,45050,39581,4,16
54877,4.6160,-6.2520,6.5190,-0.0530,-0.2540,0.1020,45032,39569,3,9
54897,4.6960,-6.0320,6.3150,-0.1430,-0.2650,0.2250,45017,39567,3,9
54917,4.9020,-5.8070,6.5050,-0.1770,-0.3340,0.1580,44985,39545,4,16
54938,5.0550,-5.7630,6.2380,-0.1080,-0.3410,0.1630,44965,39532,4,16
54958,5.4550,-6.5720,6.2150,-0.2420,-0.3880,0.1920,44938,39521,4,16
54978,5.6950,-6.8750,6.1550,-0.4200,-0.4350,0.1640,44918,39513,3,9
54998,5.7770,-6.4940,6.5850,-0.5510,-0.3910,0.1340,44896,39502,4,16
55018,5.5570,-6.0780,6.5060,-0.4120,-0.3460,0.0780,44870,39494,4,16
55038,5.2860,-5.8910,6.0820,-0.3330,-0.3070,0.0840,44852,39479,3,9
55058,5.1320,-5.3880,5.2110,0.1050,-0.2070,0.0900,44834,39474,4,16
55078,5.4380,-6.3580,4.9630,0.4340,-0.2250,0.0700,44827,39464,4,16
55098,5.0880,-5.7770,4.4500,1.0360,-0.2580,-0.0790,44804,39455,3,9
55119,5.4490,-6.7850,4.3230,1.0090,-0.4760,0.0680,44799,39449,3,9
55139,5.5450,-6.8980,4.3690,0.7340,-0.6860,0.0830,44785,39430,4,16
55159,5.6730,-6.3850,4.4500,0.5280,-0.8300,0.1860,44758,39418,3,9
55179,5.2980,-4.6470,4.1890,0.4030,-0.9210,0.3020,44734,39402,3,9
55199,5.0330,-3.7220,4.2220,0.3260,-1.0240,0.2110,44695,39387,3,9
55219,5.5210,-4.0810,5.6050,0.3620,-1.0640,-0.0390,44666,39373,4,16
55239,6.4800,-4.5840,6.3710,0.5700,-1.0240,-0.3280,44645,39370,4,16
55259,7.0340,-5.3240,6.0860,0.8120,-1.0200,-0.4520,44634,39352,4,16
55279,6.9530,-5.8900,5.2310,0.8170,-1.0650,-0.3960,44615,39340,4,16
55299,7.1650,-6.0290,4.3450,0.7570,-1.0130,-0.2460,44599,39320,4,16
55320,7.0410,-5.5730,4.5300,0.7050,-0.9990,-0.1530,44583,39310,3,9
55340,6.9230,-4.9930,4.8200,0.8490,-0.9660,-0.1010,44560,39302,4,16
55360,7.6450,-5.5810,5.2370,0.9380,-0.9900,-0.0110,44536,39287,4,16
55380,7.5260,-5.2230,5.0300,0.8110,-1.0210,-0.0440,44517,39277,3,9
55400,7.3650,-5.0290,4.9050,0.7190,-0.9950,0.0190,44493,39267,3,9
55420,7.2870,-4.9860,5.0160,0.8020,-0.9900,0.0830,44462,39255,3,9
55440,7.7330,-5.3490,5.5440,1.0070,-0.9810,0.0890,44452,39245,3,9
55460,7.6580,-4.9540,5.7150,1.1080,-0.9300,0.0370,44427,39223,3,9
55480,7.6470,-4.8400,5.6570,1.1390,-0.8210,0.0740,44398,39211,4,16
55500,7.7060,-4.8220,5.7990,1.0930,-0.7440,0.0990,44354,39179,4,16
55521,7.3930,-4.6770,5.7620,0.9530,-0.7690,-0.0110,44314,39152,4,16
55541,7.3990,-4.8360,5.6000,0.9890,-0.7060,-0.2230,44270,39119,4,16
55561,6.8820,-4.0370,5.3680,0.9010,-0.7330,-0.3170,44219,39077,3,9
55581,6.5350,-3.4620,4.8390,1.0560,-0.6710,-0.4230,44151,39027,4,16
55601,6.6680,-3.4630,4.4300,1.1460,-0.5650,-0.3840,44087,38991,4,16
55621,7.0370,-3.7360,4.3730,1.1370,-0.4760,-0.2860,44026,38946,4,16
55641,7.5750,-4.0610,4.4950,0.8680,-0.4530,-0.1730,43980,38920,4,16
55661,8.1880,-4.2870,5.2590,0.5960,-0.4440,-0.0880,43938,38892,4,16
55681,8.9650,-5.0350,5.6690,0.7310,-0.3410,-0.0560,43895,38863,3,9
55702,7.7440,-3.8470,3.9040,0.8530,-0.4520,-0.0690,43868,38840,4,16
55722,7.3720,-3.1940,2.5070,0.8270,-0.5940,0.0550,43829,38816,4,16
55742,7.4420,-2.5410,3.2660,0.3270,-0.7060,0.1960,43797,38805,4,16
55762,7.9450,-2.3100,5.2000,0.1690,-0.6730,0.1920,43774,38799,5,25
55782,8.1320,-2.2910,5.6900,0.4740,-0.6090,-0.0130,43765,38805,3,9
55802,8.4620,-2.8570,5.8950,0.8890,-0.5550,-0.1850,43783,38806,5,25
55822,8.2400,-2.9630,5.1310,1.0830,-0.5160,-0.2600,43780,38801,4,16
55842,8.7380,-3.3930,5.1480,1.0640,-0.4830,-0.1600,43782,38798,4,16
55862,9.0850,-3.5580,5.3870,0.9840,-0.4440,-0.0310,43785,38804,3,9
55882,9.0170,-3.1090,5.8180,1.0970,-0.3680,0.0660,43782,38797,3,9
55903,8.8590,-2.5190,6.0070,1.2060,-0.3040,0.1230,43772,38787,3,9
55923,8.6850,-1.9960,5.7750,1.0950,-0.2690,0.1510,43763,38776,3,9
55943,8.5440,-1.6560,6.2130,0.8520,-0.2450,0.1160,43745,38768,4,16
55963,8.5510,-1.4460,5.8480,0.6550,-0.2190,-0.0310,43731,38763,4,16
55983,8.5370,-1.1720,5.8500,0.6270,-0.1660,-0.1980,43716,38747,3,9
56003,8.5690,-1.1220,5.3250,0.5620,-0.1680,-0.3090,43693,38735,3,9
56023,8.8030,-1.6240,5.7140,0.2420,-0.2320,-0.3300,43671,38722,3,9
56043,8.8070,-1.7780,5.4420,0.0960,-0.2460,-0.3420,43645,38699,4,16
56063,8.7660,-1.6940,4.9520,-0.2030,-0.3330,-0.3070,43620,38693,3,9
56083,8.2960,-1.0210,4.9690,-0.4260,-0.4070,-0.2150,43569,38670,3,9
56104,8.6540,-1.0150,5.0890,-0.1700,-0.3680,-0.2000,43541,38658,4,16
56124,8.6300,-0.7510,4.1170,0.0980,-0.3940,-0.2560,43518,38649,4,16
56144,8.5510,-0.7950,3.5540,0.0420,-0.5160,-0.2770,43492,38631,4,16
56164,8.7890,-0.5410,3.8880,-0.0030,-0.5710,-0.3500,43460,38613,3,9
56184,9.1270,-0.7900,3.7540,0.1720,-0.5670,-0.4500,43421,38586,3,9
56204,9.5520,-1.2680,3.3900,0.1300,-0.5530,-0.5610,43386,38565,4,16
56224,9.3690,-1.0150,3.7290,-0.2060,-0.4960,-0.6960,43350,38538,5,25
56244,9.1420,-0.6010,3.3780,-0.5350,-0.4310,-0.6460,43306,38521,4,16
56264,10.1310,-0.8860,3.7270,-0.4910,-0.2320,-0.5510,43277,38508,4,16
56285,10.3540,-1.0470,4.2040,-0.3100,-0.0620,-0.5420,43262,38501,2,4
56305,10.1390,-1.2550,3.7540,-0.3160,0.0420,-0.4680,43248,38495,3,9
56325,9.7060,-1.1040,3.5880,-0.6220,0.0990,-0.3400,43236,38489,4,16
56345,9.3220,-0.6760,4.0220,-0.9960,0.1530,-0.2050,43227,38486,2,4
56365,9.1390,-0.5850,4.2780,-1.1700,0.3120,-0.1130,43224,38491,4,16
56385,9.1270,-0.7060,4.3470,-1.2290,0.4180,-0.0940,43247,38514,4,16
56405,8.9050,-0.3410,4.6000,-1.1640,0.4910,-0.1900,43276,38523,5,25
56425,9.2000,-0.3500,4.9320,-1.1430,0.5730,-0.1780,43295,38537,2,4
56445,9.5010,-0.2590,5.3620,-1.0490,0.6070,-0.0600,43297,38534,3,9
56465,9.3290,-1.3750,4.0000,-0.8360,0.4390,-0.1200,43278,38536,4,16
56486,9.1300,-1.6740,3.5550,-1.0230,0.3310,-0.1310,43268,38534,2,4
56506,8.6660,-0.6920,3.7360,-0.9150,0.3460,-0.1410,43261,38530,4,16
56526,8.6120,-0.7520,3.7910,-0.5870,0.3240,-0.0600,43255,38532,3,9
56546,8.9400,-1.4140,3.8920,-0.3810,0.2480,0.0000,43257,38537,2,4
56566,8.7200,-1.8330,4.1340,-0.4420,0.1850,0.0590,43252,38533,3,9
56586,8.4650,-1.8750,4.1970,-0.6380,0.1260,0.1380,43239,38524,3,9
56606,8.1700,-1.4860,4.2440,-0.7620,0.1240,0.1640,43237,38533,3,9
56626,7.7090,-0.8600,3.8360,-0.6400,0.1770,0.0790,43225,38523,4,16
56646,7.9280,-0.5360,3.9180,-0.3800,0.1510,0.0740,43206,38524,3,9
56666,8.8540,-1.2310,4.1550,-0.2630,0.0480,0.0130,43188,38515,4,16
56687,8.8510,-1.1150,4.3020,-0.2180,0.0140,-0.0590,43178,38512,3,9
56707,8.8450,-0.8080,3.9530,-0.1050,-0.0240,-0.0370,43171,38513,4,16
56727,8.8060,-0.8450,4.3000,0.0030,-0.0370,-0.0220,43163,38512,4,16
56747,8.6750,-1.1970,4.5490,0.0590,-0.0560,-0.0470,43157,38508,4,16
56767,8.6100,-1.2340,4.2520,0.1320,-0.0600,-0.0860,43153,38507,4,16
56787,8.5210,-0.9780,4.7150,0.3250,-0.0720,-0.0140,43147,38502,3,9
56807,8.6930,-0.8930,4.8210,0.4610,-0.0870,0.1450,43146,38501,3,9
56827,8.7640,-1.0120,4.8310,0.4440,-0.0620,0.1820,43142,38502,3,9
56847,8.8780,-0.8370,4.9480,0.4810,-0.0070,0.0490,43138,38500,4,16
56869,8.7180,-0.2810,4.9670,0.6320,0.0560,-0.0380,43148,38502,5,25
56889,8.4380,-0.1320,5.0880,0.7900,0.0970,0.0110,43154,38503,4,16
56909,8.1030,-0.1190,5.4410,0.8260,0.1370,0.0600,43171,38505,4,16
56929,7.8960,-0.6740,5.1020,0.8490,0.2140,0.0450,43191,38516,4,16
56949,8.0830,-1.5480,4.8080,0.7810,0.2710,0.0890,43222,38529,3,9
56969,8.8300,-2.0100,5.5670,0.6740,0.2410,0.1930,43259,38538,3,9
56989,9.1850,-2.1890,5.7870,0.5220,0.1290,0.2660,43277,38540,3,9
57009,9.3840,-2.7170,5.7710,0.1950,0.0670,0.4230,43294,38545,3,9
57029,9.9370,-2.9920,5.3130,-0.3130,0.1000,0.5760,43294,38541,4,16
57050,9.8440,-2.4700,5.0820,-0.3730,0.0930,0.5740,43287,38538,4,16
57070,9.6790,-2.2690,4.8210,-0.2250,0.1220,0.5860,43264,38523,3,9
57090,10.1160,-2.8340,4.8720,-0.1360,0.1210,0.7110,43239,38517,4,16
57110,10.3750,-3.4440,5.1710,-0.3880,0.0420,0.8780,43212,38498,4,16
57130,10.2510,-3.2540,4.7730,-0.8780,-0.0130,1.0860,43177,38478,4,16
57150,9.4130,-1.7620,2.3590,-1.4630,-0.0710,1.2190,43135,38452,4,16
57170,5.0890,3.2410,0.0080,-2.0650,-0.2240,0.7010,43069,38410,4,16
57190,9.2440,-0.3890,5.6790,-1.6120,-0.1230,1.3300,42988,38400,4,16
57210,8.9360,-0.8700,5.1520,-0.5310,0.3520,0.2500,42982,38396,4,16
57231,8.0360,-1.4100,4.3590,0.0990,0.2830,-0.0540,42978,38404,4,16
57251,8.5480,-2.6140,3.6360,0.4320,0.1270,-0.1020,42996,38412,4,16
57271,7.8030,-3.8450,2.8990,0.4120,-0.1450,-0.1390,43009,38420,4,16
57291,9.5680,-4.9920,3.8150,-0.1970,-0.1590,0.1350,43023,38421,4,16
57311,9.2130,-5.0350,4.7090,-1.3770,-0.3160,0.5480,43026,38412,4,16
57331,8.8330,-5.2890,3.8930,-3.0400,-0.4390,0.9380,43030,38408,4,16
57351,8.4990,-5.2430,3.8490,-4.6550,-0.4710,1.1270,43031,38410,4,16
57371,8.5880,-5.3580,4.0760,-6.0400,-0.4320,1.2200,43047,38413,3,9
57391,8.4870,-5.4580,3.7640,-6.9100,-0.3060,1.2470,43060,38422,4,16
57411,9.1670,-7.6140,2.8750,-7.3910,-0.0430,1.5380,43080,38427,4,16
57432,9.3860,-8.6650,1.9430,-7.3640,0.0750,1.6300,43102,38429,4,16
57452,9.1030,-8.3010,0.8820,-6.9870,0.0650,1.5540,43117,38430,4,16
57472,8.7510,-7.7780,-0.0020,-6.2130,0.0960,1.7900,43120,38430,4,16
57492,8.3220,-7.2300,-1.2740,-5.2950,0.0510,1.9220,43115,38432,4,16
57512,7.6700,-6.9170,-2.7750,-4.3790,-0.0860,2.0910,43112,38427,4,16
57532,7.0340,-6.7740,-3.8890,-3.5070,-0.1630,2.1810,43099,38421,4,16
57552,6.3940,-6.4030,-4.3840,-2.7340,-0.2040,2.1550,43092,38416,3,9
57572,5.8670,-6.4360,-4.8630,-2.0570,-0.2180,2.0820,43087,38414,4,16
57592,5.6690,-6.8700,-5.4380,-1.7950,-0.2520,1.9950,43087,38415,4,16
57612,4.9250,-5.9480,-5.3490,-1.5710,-0.3390,1.7400,43090,38412,3,9
57633,4.6160,-5.8050,-5.6220,-1.4520,-0.3850,1.6680,43088,38411,4,16
57653,4.3950,-5.8870,-6.0320,-1.3650,-0.3780,1.5560,43088,38410,3,9
57673,4.2270,-6.0380,-6.3910,-1.3500,-0.3860,1.4050,43080,38407,4,16
57693,3.9660,-5.6380,-6.3940,-1.2240,-0.3600,1.2170,43080,38402,4,16
57713,3.9210,-5.6200,-6.6430,-1.0530,-0.3550,1.0870,43062,38394,4,16
57733,3.6210,-5.2120,-6.5790,-0.7420,-0.3460,0.9260,43062,38393,4,16
57753,4.1170,-5.7570,-6.0970,-0.6100,-0.3130,0.9340,43060,38392,4,16
57773,3.3940,-6.2640,-5.7640,-0.6000,-0.3220,0.8820,43054,38388,4,16
57793,3.6640,-6.6390,-5.7690,-0.6310,-0.2230,0.7090,43057,38391,4,16
57814,3.5180,-7.1620,-6.5290,-0.4960,-0.1090,0.6910,43060,38391,3,9
57834,3.1990,-7.6330,-6.3670,-0.7170,-0.2770,0.4680,43072,38412,4,16
57854,3.6970,-7.0510,-5.8490,-0.7970,-0.2530,0.5200,43134,38466,4,16
57874,3.2050,-7.3750,-5.8330,-0.5360,-0.0430,0.8720,43196,38486,4,16
57894,2.8100,-7.1050,-6.6280,-0.1840,0.1950,0.9180,43248,38511,4,16
57914,2.7150,-7.1860,-6.8620,0.1260,0.3180,1.1690,43310,38537,4,16
57934,2.5290,-8.4080,-7.3070,0.4920,0.3350,0.9760,43383,38563,4,16
57954,3.1540,-7.5860,-6.9300,0.4840,0.3110,0.7280,43492,38624,4,16
57974,2.5560,-6.9970,-6.8950,0.5660,0.4060,0.6960,43573,38652,4,16
57994,2.6380,-8.0000,-6.7060,0.4990,0.0740,0.4560,43592,38654,3,9
58015,2.6660,-7.8590,-6.6640,0.3770,-0.0440,0.1090,43657,38688,3,9
58035,2.9390,-7.5410,-6.2230,0.4380,0.0400,-0.1530,43715,38724,4,16
58055,2.9940,-8.1150,-5.3340,0.5800,0.2870,-0.1150,43740,38721,4,16
58075,2.5120,-8.3590,-5.7960,0.6580,0.4190,0.2630,43680,38691,4,16
58095,2.5630,-8.1740,-5.9510,0.4840,0.4320,0.5930,43621,38657,3,9
58115,2.5450,-7.2010,-5.7710,0.3730,0.2790,0.9780,43560,38598,4,16
58135,3.0060,-6.9540,-4.9010,0.4040,0.1360,0.9520,43484,38541,4,16
58155,2.6790,-7.5360,-4.6820,0.5040,0.1810,0.4470,43425,38471,4,16
58175,2.1150,-8.2940,-5.3210,0.3940,0.2940,0.1040,43378,38442,3,9
58195,2.3380,-8.4310,-5.3210,-0.0720,0.0370,0.2080,43402,38444,3,9
58216,2.6170,-8.3770,-4.6240,-0.1580,-0.0090,0.4830,43434,38465,3,9
58236,2.0850,-8.1380,-5.0300,-0.2080,0.0920,0.3750,43473,38469,3,9
58256,2.3550,-7.7270,-4.6750,-0.4030,-0.0660,0.4480,43460,38465,4,16
58276,2.0750,-7.3750,-3.7370,-0.4440,-0.0170,0.2140,43530,38521,4,16
58296,1.3950,-7.6280,-4.7010,-0.2010,0.1880,0.0190,43698,38601,3,9
58316,1.4700,-8.3530,-5.4680,-0.1790,0.1880,0.0740,43831,38339,4,16
58336,1.8110,-8.6050,-5.7680,-0.3160,0.1440,0.1060,43841,37372,4,16
58356,1.9980,-8.3370,-5.7640,-0.4880,0.0400,0.3590,44130,37324,3,9
58376,2.0310,-7.8650,-6.0670,-0.8940,-0.1270,0.3170,44335,37244,4,16
58397,1.8500,-7.4360,-6.0210,-1.2730,-0.2440,0.2250,44391,37204,4,16
58417,1.6050,-7.3720,-5.2090,-1.1390,-0.2430,0.2730,44453,37195,5,25
58437,1.3970,-7.3750,-5.2780,-0.8200,-0.0420,0.1990,44540,37210,4,16
58457,1.7680,-7.7200,-5.0570,-0.4340,0.1030,0.1250,44648,37219,4,16
58477,1.6260,-7.5430,-4.6890,-0.0880,0.1250,0.2530,44746,37241,4,16
58497,1.0590,-7.9580,-6.0730,-0.0100,0.0840,0.2840,44847,37262,4,16
58517,1.2040,-7.8520,-5.9390,-0.0510,0.0490,0.2340,44932,37250,4,16
58537,1.4190,-7.4950,-5.7620,-0.1110,0.1560,0.2080,45040,37282,4,16
58557,1.5900,-7.8880,-6.6920,-0.4060,0.1390,0.0660,45175,37347,4,16
58577,1.5540,-7.5600,-6.9440,-0.6090,-0.0690,-0.0440,45330,37456,3,9
58598,1.4710,-6.8520,-6.0980,-0.4460,-0.2690,-0.2140,45412,37522,4,16
58618,1.2310,-7.2560,-6.1400,-0.2910,-0.4200,-0.2410,45474,37595,4,16
58638,1.0060,-8.1880,-6.5370,-0.2620,-0.4790,-0.2760,45521,37657,4,16
58658,0.7810,-8.1520,-6.2540,-0.2800,-0.5380,-0.3310,45563,37712,4,16
58678,0.5830,-7.9640,-5.7140,-0.1890,-0.5620,-0.3700,45597,37753,4,16
58698,0.6180,-7.7810,-5.7520,-0.0560,-0.3780,-0.0820,45618,37789,3,9
58718,0.6930,-7.9830,-5.9770,-0.0070,-0.3280,-0.0350,45647,37823,4,16
58738,0.5630,-8.0760,-5.8050,-0.0400,-0.3780,-0.1240,45686,37853,4,16
58758,0.5930,-8.2420,-5.7230,-0.1430,-0.3740,-0.0750,45727,37887,4,16
58778,0.6550,-7.8670,-6.0900,-0.3500,-0.2970,-0.1360,45779,37922,4,16
58799,0.8040,-7.6230,-5.8970,-0.3440,-0.2650,-0.1470,45824,37959,4,16
58819,0.9650,-8.3010,-6.4820,-0.2890,-0.2300,-0.0640,45885,37991,3,9
58839,1.1290,-8.4310,-7.2130,-0.3100,-0.2330,-0.0470,45927,38018,4,16
58859,1.2610,-8.0070,-7.2560,-0.3110,-0.2670,-0.1400,45978,38038,3,9
58879,1.3190,-7.9980,-7.1690,-0.2630,-0.2840,-0.1650,46024,38072,4,16
58899,1.3530,-7.6790,-6.9850,-0.1760,-0.3100,-0.1130,46077,38102,3,9
58919,1.3010,-7.3320,-6.7280,-0.0630,-0.2960,-0.0640,46122,38131,3,9
58939,1.2190,-7.2170,-6.7370,0.0390,-0.2450,-0.0490,46169,38168,4,16
58959,1.2980,-7.2870,-6.9260,0.0360,-0.1750,0.0040,46223,38193,4,16
58980,1.3990,-7.3630,-7.0610,-0.0290,-0.1410,0.0390,46251,38213,3,9
59000,1.4080,-7.6120,-7.3980,-0.1550,-0.0990,0.0670,46277,38232,4,16
59020,1.4870,-7.4660,-7.6770,-0.3180,-0.0880,0.0550,46301,38250,4,16
59040,1.4690,-7.4900,-8.0170,-0.4400,-0.0810,-0.0100,46332,38277,4,16
59060,1.3320,-7.2860,-8.1210,-0.5150,-0.0950,-0.0040,46381,38299,4,16
59080,1.2310,-6.7790,-7.7870,-0.4950,-0.1400,0.0260,46433,38338,4,16
59100,0.9880,-6.4880,-7.5050,-0.3570,-0.1750,0.0490,46494,38371,4,16
59120,0.7810,-6.2800,-7.4500,-0.2060,-0.2280,0.0980,46541,38404,4,16
59140,0.6330,-6.4070,-7.4380,-0.1270,-0.2460,0.0640,46581,38426,3,9
59160,0.4970,-6.7030,-7.7500,-0.1970,-0.2240,-0.0150,46599,38448,5,25
59181,0.6730,-6.5000,-7.6480,-0.2510,-0.2220,-0.0710,46596,38463,4,16
59201,0.6640,-6.5570,-7.5170,-0.2660,-0.1820,-0.1440,46608,38484,3,9
59221,0.7880,-6.6120,-7.6110,-0.2260,-0.1250,-0.1320,46645,38513,4,16
59241,0.8180,-6.6300,-8.1890,-0.1620,-0.0630,-0.2000,46686,38541,4,16
59261,1.0650,-6.9590,-8.5020,-0.0920,-0.0720,-0.1830,46747,38579,3,9
59281,1.1990,-6.7480,-8.4920,-0.0200,-0.1110,-0.0630,46806,38608,4,16
59301,1.0650,-6.4190,-8.3710,0.0520,-0.1130,-0.0200,46861,38641,4,16
59321,0.9010,-6.2480,-8.0470,0.1270,-0.0600,-0.1100,46903,38664,4,16
59341,0.7550,-6.9300,-8.2460,0.1120,0.0050,-0.1490,46934,38690,4,16
59361,0.9860,-6.6580,-7.6520,-0.0560,0.0180,-0.0970,46994,38716,4,16
59382,1.0260,-6.2020,-6.8820,-0.0590,0.0350,-0.1690,47035,38733,3,9
59402,0.6580,-5.9170,-6.3640,0.0630,0.1210,-0.3710,47074,38753,4,16
59422,0.5100,-6.6580,-6.6270,0.1930,0.1810,-0.3490,47093,38774,4,16
59442,0.4550,-7.1670,-7.1620,0.1770,0.2320,-0.2080,47065,38763,4,16
59462,0.7400,-6.8310,-7.0630,0.1080,0.2400,-0.0320,47065,38785,4,16
59482,0.7750,-6.2730,-6.9790,0.1680,0.2920,-0.1690,47121,38802,4,16
59502,0.7120,-5.9780,-6.5840,0.3860,0.4150,-0.3730,47170,38826,3,9
59522,0.5930,-6.9520,-7.5600,0.5520,0.4680,-0.3490,47173,38837,4,16
59542,1.1170,-7.4680,-8.4720,0.2120,0.1680,0.0700,47182,38855,4,16
59563,1.3580,-6.8520,-8.0130,-0.0280,-0.0040,0.0780,47243,38875,4,16
59583,1.1840,-6.4460,-7.6720,-0.1410,-0.0730,-0.1570,47306,38896,4,16
59603,0.7690,-6.5420,-7.0840,-0.1540,-0.0570,-0.2790,47339,38914,3,9
59623,0.6170,-6.7960,-7.0590,-0.1130,0.0210,-0.2450,47366,38923,4,16
59643,0.9220,-7.1400,-7.1370,-0.0710,0.0320,-0.1430,47370,38917,4,16
59663,1.1280,-7.2660,-7.1080,-0.0710,0.0360,-0.1350,47364,38919,4,16
59683,1.1290,-7.5310,-7.0710,-0.0960,-0.0120,-0.1250,47367,38924,3,9
59703,1.1740,-7.7930,-7.2460,-0.1410,-0.0670,-0.0230,47380,38930,4,16
59723,1.1840,-7.9200,-7.3060,-0.2140,-0.1050,-0.0200,47405,38944,4,16
59743,1.0980,-8.0960,-6.9320,-0.1170,-0.0890,0.0710,47455,38970,3,9
59764,0.8830,-7.6390,-6.5800,0.0820,-0.1100,0.2500,47491,38981,4,16
59784,0.8640,-7.6690,-6.6500,0.2690,-0.1230,0.2650,47527,39002,3,9
59804,0.5950,-7.9870,-6.7770,0.3480,-0.0530,0.2010,47571,39021,3,9
59824,0.6260,-8.2730,-7.1350,0.2930,0.0430,0.1890,47606,39040,4,16
59844,0.5700,-7.9360,-6.9760,0.2510,0.1050,0.1730,47644,39062,4,16
59864,0.4980,-7.7860,-6.8890,0.3040,0.1780,0.1190,47680,39082,4,16
59884,0.4390,-7.8960,-6.9220,0.4050,0.1920,0.1150,47710,39101,3,9
59904,0.3850,-8.0900,-6.9640,0.4700,0.1940,0.1810,47736,39114,3,9
59924,0.6960,-8.2890,-7.0230,0.4440,0.2090,0.1960,47748,39125,3,9
59944,1.1010,-8.3700,-7.1790,0.2670,0.2900,0.1650,47788,39143,3,9
59965,1.2990,-8.2720,-7.3620,0.1040,0.2960,0.1570,47814,39165,4,16
59985,1.3920,-7.8580,-7.4460,0.0420,0.2090,0.1840,47838,39180,4,16
60005,1.2380,-7.4160,-7.0650,0.1170,0.1230,0.1550,47852,39192,4,16
60025,0.9670,-7.4700,-6.7620,0.2680,0.0840,0.1450,47877,39204,3,9
60045,0.8790,-7.5020,-6.4520,0.4100,0.0870,0.1540,47891,39211,4,16
60065,0.8770,-7.6210,-6.2060,0.5090,0.1140,0.2450,47901,39218,3,9
60085,1.0040,-7.8090,-6.3300,0.4620,0.1500,0.2680,47910,39225,4,16
60105,1.1530,-7.9040,-6.4030,0.3040,0.1990,0.1830,47912,39230,3,9
60125,1.3470,-7.6290,-6.1120,0.1480,0.1950,0.0200,47896,39215,3,9
60146,1.4290,-7.4260,-5.7340,0.1370,0.1620,-0.0040,47843,39202,3,9
60166,1.4580,-7.5310,-5.7480,0.1700,0.1730,0.0080,47791,39194,4,16
60186,1.6180,-7.8750,-6.0030,0.1810,0.1920,0.0320,47764,39196,3,9
60206,1.6840,-7.9150,-6.0330,0.1730,0.2210,0.0530,47764,39204,4,16
60226,1.6740,-7.9930,-6.0150,0.1590,0.2120,0.0480,47768,39205,3,9
60246,1.5790,-7.9710,-5.9960,0.1280,0.1620,0.0390,47774,39208,3,9
60266,1.4340,-7.8980,-6.0330,0.1080,0.1020,-0.0210,47783,39215,4,16
60286,1.4210,-7.9130,-5.8790,0.0870,0.0740,-0.0430,47791,39216,3,9
60306,1.5200,-7.9210,-5.7740,0.0890,0.0780,0.0050,47813,39226,4,16
60326,1.7260,-7.8120,-5.6060,0.1250,0.0750,0.0220,47831,39231,3,9
60347,1.8220,-7.8850,-5.4920,0.1390,0.0480,0.0230,47843,39238,4,16
60367,1.8350,-8.0230,-5.3680,0.0990,0.0320,-0.0210,47846,39240,4,16
60387,1.7870,-8.0970,-5.2100,0.0480,0.0210,-0.0510,47851,39239,4,16
60407,1.7240,-8.2380,-5.1060,-0.0120,0.0220,-0.0680,47858,39238,4,16
60427,1.7740,-8.3700,-5.1620,-0.0240,0.0370,-0.1010,47865,39244,3,9
60447,1.6690,-8.3880,-5.0630,-0.0070,0.0470,-0.1470,47872,39252,4,16
60467,1.5890,-8.6510,-5.3470,-0.0200,0.0430,-0.1600,47881,39259,4,16
60487,1.3500,-8.5940,-5.4050,-0.0290,0.0230,-0.1110,47896,39265,3,9
60507,1.1730,-8.1880,-5.1980,0.0340,-0.0210,-0.0730,47911,39271,3,9
60528,1.0120,-7.8640,-4.8840,0.1450,-0.0450,-0.0510,47918,39280,3,9
60548,0.9880,-7.8900,-4.6020,0.2320,-0.0470,-0.0560,47921,39277,4,16
60568,1.0950,-7.9540,-4.2270,0.2700,0.0280,-0.0600,47924,39279,4,16
60588,1.3120,-8.3020,-4.0340,0.2580,0.1210,-0.0330,47907,39266,3,9
60608,1.4750,-8.6810,-4.0520,0.2050,0.2290,0.0280,47858,39247,4,16
60628,1.7010,-8.8300,-4.2540,0.1480,0.3230,0.0910,47761,39213,3,9
60648,1.8630,-9.0330,-4.9130,0.0420,0.3920,0.1080,47679,39185,3,9
60668,1.9350,-9.1030,-5.3100,-0.1490,0.4170,-0.0070,47616,39165,4,16
60688,1.7540,-8.4860,-5.1160,-0.3290,0.4100,-0.1470,47555,39144,4,16
60708,1.1160,-7.6970,-4.2520,-0.3050,0.4660,-0.2150,47457,39099,4,16
60729,1.1720,-7.0820,-3.8140,-0.0200,0.3860,-0.0920,47395,39066,4,16
60749,1.1660,-7.1380,-3.6020,0.4250,0.5090,-0.1020,47342,39026,3,9
60769,1.3610,-8.5340,-4.7490,0.4400,0.6560,-0.0700,47220,38951,4,16
60789,1.9050,-9.0730,-4.8490,0.0900,0.4980,-0.0220,46986,38901,3,9
60809,2.2000,-8.8920,-4.4280,-0.2570,0.2180,-0.1520,46890,38869,4,16
60829,2.1100,-8.3410,-3.8980,-0.3560,0.0760,-0.2660,46829,38852,4,16
60849,1.8960,-7.6600,-3.6200,-0.1270,0.0900,-0.3300,46793,38835,3,9
60869,1.9430,-7.7930,-3.6300,0.2380,0.1720,-0.3570,46759,38822,4,16
60889,2.4540,-8.8480,-4.1240,0.3960,0.2770,-0.3690,46737,38803,4,16
60909,2.9870,-10.0190,-4.7630,-0.1090,0.3630,-0.3780,46703,38781,4,16
60930,3.0250,-9.4260,-4.5250,-0.4500,0.3920,-0.3860,46681,38770,3,9
60950,2.8790,-8.3340,-4.3590,-0.4250,0.4260,-0.4210,46659,38757,4,16
60970,2.7580,-7.5420,-4.4340,-0.0450,0.4800,-0.4350,46633,38742,4,16
60990,2.9130,-7.9120,-4.6940,0.3890,0.5470,-0.3870,46610,38726,4,16
61010,3.3550,-8.4340,-4.9050,0.5260,0.5730,-0.3550,46589,38720,4,16
61030,3.5590,-8.9320,-5.3680,0.3390,0.5170,-0.3260,46579,38715,4,16
61050,3.7070,-8.7770,-5.5800,0.0030,0.4360,-0.3260,46557,38706,4,16
61070,3.8330,-8.3020,-5.3800,-0.1210,0.4000,-0.3540,46547,38701,4,16
61090,3.7300,-7.0330,-4.6870,0.3880,0.4250,-0.4620,46507,38681,4,16
61111,3.6770,-7.4720,-4.8640,0.8820,0.4440,-0.4920,46482,38670,3,9
61131,3.7860,-8.6650,-5.2540,0.9600,0.4180,-0.4380,46455,38663,3,9
61151,3.9440,-9.5250,-5.3810,0.5410,0.3270,-0.3660,46432,38649,4,16
61171,3.7940,-9.2080,-5.1800,0.0190,0.2040,-0.3420,46413,38640,3,9
61191,3.5300,-8.3980,-4.8610,-0.1780,0.1330,-0.3270,46390,38638,4,16
61211,3.3490,-7.8290,-4.4530,0.0600,0.1390,-0.3080,46369,38627,3,9
61231,3.4060,-8.0090,-4.4390,0.4590,0.1650,-0.2990,46354,38626,4,16
61251,3.4700,-8.9830,-4.8350,0.6440,0.1620,-0.2370,46345,38617,3,9
61271,3.6190,-9.7260,-5.0280,0.4230,0.1110,-0.1330,46332,38615,4,16
61291,3.6910,-9.7110,-4.6150,-0.0750,0.0290,0.0030,46326,38612,4,16
61312,3.5110,-9.1950,-4.4360,-0.1850,0.0030,0.0640,46312,38605,4,16
61332,3.4440,-8.9960,-4.4070,-0.1120,0.0030,0.1370,46306,38601,4,16
61352,3.5060,-9.0560,-4.4650,-0.0370,-0.0040,0.2070,46294,38593,4,16
61372,3.5650,-9.1630,-4.6050,-0.0370,-0.0250,0.2570,46280,38585,4,16
61392,3.6850,-9.2570,-4.7270,-0.1110,-0.0520,0.2990,46270,38577,3,9
61412,3.7180,-9.1280,-4.7850,-0.1900,-0.0870,0.3280,46261,38576,4,16
61432,3.8220,-9.0510,-4.7270,-0.2320,-0.1120,0.3650,46242,38570,4,16
61452,3.8020,-8.7900,-4.6140,-0.2250,-0.1380,0.3900,46230,38567,4,16
61472,3.7330,-8.6990,-4.5980,-0.2100,-0.1720,0.4350,46213,38554,3,9
61494,3.7610,-8.7950,-4.6410,-0.3110,-0.1990,0.4580,46196,38547,3,9
61514,3.6550,-8.6040,-4.5230,-0.4610,-0.2290,0.4520,46185,38540,3,9
61534,3.5630,-8.3450,-4.4880,-0.5540,-0.2490,0.4280,46171,38531,4,16
61554,3.3960,-8.1620,-4.4220,-0.5480,-0.2520,0.4020,46152,38522,3,9
61574,3.3240,-8.4640,-4.5770,-0.5680,-0.2510,0.4090,46126,38508,3,9
61594,3.3030,-8.8660,-4.6690,-0.7230,-0.2630,0.4480,46094,38494,4,16
61614,3.1750,-9.0690,-4.8350,-1.0510,-0.3170,0.5230,46069,38483,4,16
61634,3.2170,-9.3800,-5.1160,-1.5040,-0.3780,0.6620,46035,38469,4,16
61654,2.9150,-9.2810,-5.6420,-2.1530,-0.4470,0.8060,45998,38445,3,9
61675,2.8130,-9.5910,-6.3540,-2.6780,-0.5150,0.9730,45974,38426,3,9
61695,2.6060,-8.7600,-6.6020,-3.1060,-0.5840,1.0500,45943,38397,4,16
61715,2.0100,-7.2700,-6.8950,-2.8710,-0.6160,1.0290,45906,38375,4,16
61735,1.6320,-6.8270,-7.5290,-2.1750,-0.6130,1.0280,45879,38356,4,16
61755,1.3540,-7.3230,-7.9280,-1.6890,-0.6320,1.0720,45860,38334,4,16
61775,0.9220,-7.1770,-7.9100,-1.5920,-0.6870,1.0920,45838,38315,4,16
61795,0.4990,-6.4330,-7.7310,-1.4920,-0.7330,1.0630,45814,38295,4,16
61815,-0.0420,-5.7440,-7.8110,-1.2000,-0.7330,0.9960,45776,38267,4,16
61835,-0.4180,-5.5510,-8.0450,-0.9100,-0.7100,0.9330,45750,38254,4,16
61855,-0.6720,-5.6370,-8.0980,-0.7170,-0.6890,0.8230,45714,38227,3,9
61876,-0.7280,-5.7820,-8.3050,-0.6460,-0.6800,0.7630,45690,38211,4,16
61896,-0.8860,-5.4000,-8.3500,-0.4940,-0.6810,0.6820,45666,38198,4,16
61916,-1.0240,-5.5710,-8.3460,-0.3100,-0.6760,0.6440,45639,38183,4,16
61936,-0.9720,-5.9860,-8.6370,-0.3130,-0.6850,0.6230,45626,38165,4,16
61956,-1.1320,-5.7650,-8.5960,-0.3190,-0.7070,0.5930,45605,38159,4,16
61976,-1.4100,-5.3890,-8.6110,-0.1500,-0.7230,0.5430,45588,38145,4,16
61996,-1.6220,-5.5380,-9.0190,0.1020,-0.7110,0.5090,45569,38142,3,9
62016,-1.6420,-5.9960,-9.1900,0.2020,-0.6930,0.4830,45561,38138,4,16
62036,-1.5720,-5.9400,-9.0880,0.0750,-0.7110,0.4420,45537,38123,3,9
62057,-1.6220,-5.5250,-8.7560,0.0930,-0.7480,0.4270,45516,38109,4,16
62077,-1.5860,-5.5500,-8.4020,0.2170,-0.7830,0.3990,45487,38095,4,16
62097,-1.8720,-5.5630,-7.9850,0.2940,-0.8280,0.3390,45464,38089,4,16
62117,-2.1790,-5.4370,-7.4480,0.2810,-0.8550,0.2890,45446,38078,4,16
62137,-2.5250,-5.1440,-7.0760,0.3990,-0.8390,0.2140,45427,38075,4,16
62157,-2.5980,-5.2850,-6.8160,0.5320,-0.7790,0.1420,45415,38067,3,9
62177,-2.6020,-5.4350,-6.4180,0.5780,-0.6890,0.0580,45403,38065,5,25
62197,-2.5970,-5.7820,-6.4310,0.5320,-0.5560,-0.0100,45394,38057,5,25
62217,-2.6260,-5.5460,-6.3330,0.5100,-0.4050,-0.1090,45383,38053,4,16
62237,-2.4480,-5.8050,-6.4510,0.6130,-0.1510,-0.1880,45375,38053,4,16
62258,-2.2590,-6.2430,-6.7000,0.6600,-0.0340,-0.2130,45369,38051,4,16
62278,-1.9460,-7.1290,-7.2510,0.4480,0.0070,-0.1430,45373,38048,4,16
62298,-1.6300,-7.8340,-7.9430,-0.0980,-0.0630,-0.0270,45377,38045,4,16
62318,-1.5110,-7.3080,-7.8660,-0.3670,-0.1430,0.0850,45376,38040,4,16
62338,-1.5080,-6.2940,-7.1400,-0.0050,-0.2070,0.1220,45365,38035,4,16
62358,-1.6690,-6.4260,-7.2500,0.6060,-0.2980,0.1800,45355,38035,2,4
62378,-2.0280,-7.0720,-7.2330,1.0150,-0.3720,0.2350,45351,38038,4,16
62398,-2.2630,-7.8350,-7.3530,1.0790,-0.4100,0.3240,45344,38032,3,9
62418,-2.3950,-7.6820,-6.8260,0.6840,-0.6290,0.4160,45329,38016,4,16
62439,-2.8560,-6.8580,-6.3400,0.9280,-0.7190,0.3060,45301,38001,3,9
62459,-3.4920,-5.9300,-5.1060,1.9480,-0.6900,0.1040,45274,37988,2,4
62479,-3.6090,-6.3040,-4.1280,3.1560,-0.6220,0.0080,45246,37974,4,16
62499,-3.6600,-7.8750,-4.0870,3.9530,-0.6070,0.0090,45230,37974,4,16
62519,-3.4780,-9.8410,-4.2900,3.8360,-0.6000,0.0630,45219,37958,1,1
62539,-3.7620,-10.0330,-4.0980,3.1790,-0.6010,0.0690,45195,37945,5,25
62559,-4.1180,-8.9350,-3.0670,2.6720,-0.5730,0.0920,45151,37919,4,16
62579,-4.1080,-7.8910,-2.0400,2.7100,-0.4790,0.0550,45105,37901,5,25
62599,-4.2930,-6.8260,-1.2930,3.4100,-0.3190,-0.1420,45068,37895,4,16
62619,-4.0030,-7.7990,0.0100,4.2920,-0.0220,-0.1790,45028,37886,4,16
62640,-3.4900,-8.7080,0.2560,3.9380,0.0010,-0.0580,45028,37890,3,9
62660,-3.2740,-8.6550,0.6810,3.1560,-0.0510,0.0650,45014,37887,3,9
62680,-3.5250,-7.0820,1.2880,2.7740,-0.0670,-0.0210,45008,37887,3,9
62700,-3.6140,-6.3840,2.1690,2.8290,0.0010,-0.1180,44987,37871,3,9
62720,-3.4670,-6.5010,2.4880,2.8720,0.0420,-0.1820,44974,37869,4,16
62740,-3.1650,-7.9040,2.5320,2.5220,0.0540,-0.1580,44963,37862,2,4
62760,-2.9620,-7.9120,2.7520,1.8060,-0.0150,-0.2290,44945,37858,2,4
62780,-3.1910,-7.5670,3.2080,1.3610,-0.0210,-0.3140,44924,37842,3,9
62800,-3.1590,-7.1430,3.8910,1.1220,-0.0350,-0.3050,44894,37830,4,16
62820,-3.3570,-7.1080,4.1070,0.9730,-0.0680,-0.2670,44866,37821,2,4
62841,-3.2860,-7.4340,3.9290,0.7520,-0.0560,-0.2030,44844,37810,3,9
62861,-3.7590,-7.6590,4.2040,0.8180,-0.0120,-0.3360,44824,37796,3,9
62881,-3.0140,-7.4050,4.7740,0.9770,0.1280,-0.2850,44798,37784,4,16
62901,-2.6590,-9.0510,6.3940,1.1770,0.1850,-0.2620,44780,37779,4,16
62921,-2.8000,-8.6540,5.7310,1.2430,0.2300,-0.1010,44774,37785,3,9
62941,-3.0720,-8.0190,5.1500,0.6350,0.1190,0.0600,44779,37787,3,9
62961,-3.6370,-7.3810,5.9380,0.2300,0.1260,0.0370,44775,37780,4,16
62981,-3.6080,-7.5960,4.5210,0.0530,-0.0670,0.0290,44751,37773,4,16
63001,-3.9210,-8.1370,3.7130,-0.2840,-0.0170,-0.0100,44713,37753,3,9
63022,-3.8750,-7.7690,3.6070,-0.4860,0.0280,0.1270,44693,37761,4,16
63042,-2.9890,-7.7050,4.5670,-0.5190,-0.0850,0.1470,44704,37784,4,16
63062,-3.2530,-7.7010,5.0450,-0.2380,-0.1350,0.1150,44713,37804,3,9
63082,-3.4840,-8.0890,4.6850,-0.2140,-0.1850,0.1720,44737,37842,4,16
63102,-3.4090,-8.3990,4.8540,-0.2010,-0.1030,0.1560,44777,37866,2,4
63122,-3.1680,-8.5890,5.1260,-0.1510,-0.0220,0.0680,44821,37892,4,16
63142,-3.0550,-9.0700,5.0590,-0.2180,0.0750,0.0670,44876,37929,4,16
63162,-2.4710,-10.0250,5.6290,-0.1440,0.2150,0.5630,44965,37980,2,4
63182,-2.7320,-8.8690,5.2890,-0.0730,0.3120,0.8420,45118,38074,4,16
63202,-3.7940,-6.6010,4.2690,-0.2310,0.3990,0.4380,45409,38246,2,4
63223,-3.4420,-6.5230,4.1110,-0.3740,0.3730,0.1450,45636,38358,4,16
63243,-3.2510,-7.4230,3.9240,-0.5030,0.3700,0.0340,45871,38461,2,4
63263,-3.4870,-7.7440,3.4850,-0.5610,0.3790,-0.1130,46090,38558,3,9
63283,-3.3930,-7.9160,3.4050,-0.5560,0.3500,-0.1400,46288,38646,1,1
63303,-2.9630,-7.9870,3.5120,-0.3490,0.1010,-0.1370,46454,38718,4,16
63323,-3.2910,-7.7010,3.1510,-0.2370,-0.0030,-0.1370,46565,38759,3,9
63343,-3.5920,-7.9250,2.9630,-0.2250,-0.0320,-0.1920,46632,38785,4,16
63363,-3.5450,-8.4910,3.0000,-0.2640,-0.0220,-0.1140,46688,38807,3,9
63383,-3.5110,-8.5830,3.1030,-0.2610,0.0050,-0.1370,46737,38825,3,9
63403,-3.7780,-8.2320,3.0690,-0.1210,0.0650,-0.0250,46793,38848,3,9
63424,-3.4200,-7.8480,2.8130,-0.1240,0.0310,0.0160,46820,38859,3,9
63444,-3.6690,-7.8530,2.7210,-0.2190,-0.0480,-0.1320,46856,38869,3,9
63464,-3.8180,-8.1830,2.7080,-0.2790,-0.0830,-0.1220,46878,38878,4,16
63484,-3.6080,-8.1130,2.7350,-0.3650,-0.0950,-0.1070,46901,38883,4,16
63504,-3.4970,-7.8870,2.9100,-0.3980,-0.1150,-0.2190,46903,38888,3,9
63524,-3.8430,-8.0360,2.6800,-0.3730,-0.1260,-0.2800,46905,38895,3,9
63544,-3.5790,-8.5010,2.4250,-0.4730,-0.1200,-0.3280,46933,38909,4,16
63564,-3.2310,-8.6720,2.3980,-0.5920,-0.1380,-0.3770,46964,38929,4,16
63584,-3.1910,-8.3990,2.2740,-0.6660,-0.1780,-0.4760,47033,38966,4,16
63605,-2.9480,-8.2370,2.1610,-0.5960,-0.1960,-0.4940,47066,38995,5,25
63625,-2.8410,-9.0500,2.2820,-0.5430,-0.1950,-0.5060,47108,39020,3,9
63645,-2.9740,-9.2010,2.5220,-0.4280,-0.1800,-0.3810,47141,39046,3,9
63665,-2.7490,-8.8110,2.6300,-0.3050,-0.1800,-0.3470,47169,39066,4,16
63685,-2.8200,-8.6390,2.5940,-0.1850,-0.2240,-0.4020,47195,39074,3,9
63705,-3.2020,-8.5160,2.7050,-0.1120,-0.2660,-0.4840,47200,39077,3,9
63725,-3.2720,-8.6770,2.6480,-0.0680,-0.2770,-0.3950,47195,39076,2,4
63745,-3.1760,-8.8550,2.6670,-0.0660,-0.2540,-0.2740,47181,39073,1,1
63765,-3.2300,-8.9230,2.7200,-0.0310,-0.1930,-0.2360,47185,39077,5,25
63785,-3.1750,-8.4520,2.6620,0.0450,-0.1160,-0.1870,47200,39073,4,16
63806,-3.1760,-8.7150,2.6820,0.0320,-0.1240,-0.2460,47216,39074,4,16
63826,-3.2550,-9.1840,2.7050,-0.0210,-0.1180,-0.1700,47227,39072,5,25
63846,-2.7620,-8.9000,2.7220,-0.0330,-0.1360,-0.1400,47242,39075,3,9
63866,-2.8830,-8.7560,2.6720,-0.0500,-0.1670,-0.2480,47269,39080,5,25
63886,-2.7680,-8.7380,2.8720,0.0080,-0.1770,-0.2310,47294,39093,4,16
63906,-2.9040,-8.6250,2.7660,0.0360,-0.1660,-0.2170,47310,39103,3,9
63926,-2.9920,-8.8810,2.7930,0.0220,-0.1410,-0.1740,47322,39114,6,36
63946,-2.8020,-8.9240,2.9230,0.0070,-0.1180,-0.0840,47346,39117,3,9
63966,-2.7450,-8.7940,3.0210,-0.0090,-0.1150,-0.1450,47358,39124,5,25
63986,-2.5010,-9.1420,3.3440,0.0170,-0.0930,-0.2360,47334,39121,4,16
64007,-2.5280,-9.3470,3.4680,0.0390,-0.0580,-0.2180,47318,39124,2,4
64027,-2.3360,-9.4990,3.6240,0.0730,-0.0320,-0.1540,47321,39132,2,4
64047,-2.3220,-9.5800,3.7160,0.1640,0.0010,-0.1960,47330,39139,2,4
64067,-2.2880,-9.6470,3.8250,0.2300,0.0510,-0.2420,47339,39144,1,1
64087,-2.1620,-9.7430,3.9300,0.2480,0.1250,-0.2300,47352,39149,4,16
64107,-1.9800,-9.7480,3.9180,0.2510,0.1530,-0.2160,47362,39151,7,49
64127,-2.0050,-9.6320,3.8570,0.2600,0.1290,-0.1990,47384,39156,3,9
64147,-2.0200,-9.2540,3.7190,0.3110,0.0800,-0.1390,47395,39164,4,16
64167,-1.9320,-9.1470,3.6860,0.4340,0.0170,-0.1030,47417,39173,2,4
64188,-1.8300,-9.0680,3.7270,0.5200,0.0130,-0.0340,47427,39178,5,25
64208,-1.8120,-9.0240,3.7110,0.5600,0.0580,-0.0010,47431,39178,5,25
64228,-1.5510,-8.9180,3.8010,0.5210,0.1340,0.0060,47432,39180,5,25
64248,-1.4280,-8.5330,3.9830,0.4900,0.1970,0.0080,47431,39183,5,25
64268,-1.2170,-8.2010,3.9880,0.4850,0.2380,0.0250,47440,39185,4,16
64288,-1.0750,-8.1860,4.1260,0.4650,0.2490,-0.0100,47438,39185,3,9
64308,-1.1280,-8.1520,4.1900,0.4330,0.2490,-0.0570,47449,39190,4,16
64328,-0.9300,-8.2530,4.2740,0.3870,0.2290,-0.0810,47454,39192,5,25
64348,-0.9450,-8.2530,4.3510,0.3500,0.2050,-0.0950,47462,39199,5,25
64368,-1.2490,-8.0160,4.4340,0.3470,0.1990,-0.0880,47474,39205,2,4
64389,-1.3650,-7.8370,4.5030,0.3530,0.1910,-0.0610,47480,39209,5,25
64409,-1.6680,-7.8730,4.4350,0.3250,0.1810,-0.0570,47485,39206,3,9
64429,-1.8030,-7.6960,4.4630,0.2600,0.1720,-0.0520,47482,39208,4,16
64449,-1.9000,-7.5240,4.4980,0.1910,0.1330,-0.1260,47479,39202,3,9
64469,-1.9490,-7.6160,4.6400,0.1450,0.0790,-0.2480,47447,39194,4,16
64489,-1.8460,-7.8270,4.7490,0.1080,0.0570,-0.2750,47432,39188,3,9
64509,-2.0000,-7.8900,4.7780,0.0890,0.0660,-0.2120,47412,39187,3,9
64529,-1.7880,-7.7720,4.7850,0.0790,0.0760,-0.1620,47413,39184,3,9
64549,-1.8320,-7.5560,4.6660,0.0230,0.0430,-0.0780,47410,39189,4,16
64571,-2.0200,-7.2220,4.6100,0.0200,-0.0030,-0.1100,47427,39187,4,16
64591,-2.0460,-7.2090,4.6200,0.0260,-0.0280,-0.1090,47432,39191,5,25
64611,-2.0820,-7.2220,4.6720,-0.0040,-0.0180,-0.1300,47433,39191,4,16
64631,-1.8900,-7.2520,4.7140,-0.0830,0.0100,-0.1610,47441,39193,4,16
64651,-1.8360,-7.2660,4.8510,-0.1760,0.0410,-0.1810,47442,39193,4,16
64671,-1.5960,-7.3750,4.9690,-0.2500,0.0460,-0.1900,47450,39195,5,25
64691,-1.5410,-7.5980,4.9730,-0.3180,0.0200,-0.2190,47447,39198,4,16
64711,-1.6010,-7.4970,5.0470,-0.3150,-0.0320,-0.2090,47449,39198,3,9
64731,-1.7190,-7.1610,5.2460,-0.2450,-0.1350,-0.2320,47429,39194,4,16
64752,-1.9310,-7.2870,5.4170,-0.1920,-0.1950,-0.2290,47400,39176,3,9
64772,-2.0770,-7.7820,5.3390,-0.2540,-0.2150,-0.1890,47361,39153,3,9
64792,-2.0140,-7.6300,5.1010,-0.4390,-0.1810,-0.1030,47321,39137,3,9
64812,-2.2250,-7.6540,4.5600,-0.6620,-0.1110,-0.1070,47288,39116,4,16
64832,-1.9440,-7.8830,4.2490,-0.8160,-0.0210,-0.2910,47265,39108,3,9
64852,-1.6590,-8.3230,4.1010,-0.8830,0.0620,-0.3380,47238,39093,4,16
64872,-1.4640,-8.6900,4.2260,-0.8420,0.0060,-0.2340,47212,39077,2,4
64892,-1.3890,-8.8650,4.2630,-0.9060,-0.1320,-0.0300,47194,39064,4,16
64912,-1.4310,-8.8730,4.1670,-0.7760,-0.1700,0.0590,47181,39053,3,9
64932,-1.5050,-9.1630,4.1360,-0.4180,-0.1590,-0.0580,47161,39038,3,9
64953,-1.2810,-9.7430,4.1960,-0.2630,-0.1670,-0.1760,47131,39025,4,16
64973,-1.2990,-9.8650,3.9320,-0.2210,-0.1750,-0.2220,47103,39010,3,9
64993,-1.2160,-9.6940,3.9850,-0.2910,-0.1510,-0.1160,47073,38996,4,16
65013,-0.9980,-9.2270,4.0580,-0.3420,-0.1270,-0.0630,47059,38991,3,9
65033,-0.9480,-8.7320,4.1310,-0.3090,-0.1080,0.0060,47040,38985,4,16
65053,-0.6510,-8.4690,4.0490,-0.2210,-0.1000,0.0360,47025,38982,3,9
65073,-0.5530,-8.4420,3.8690,-0.2090,-0.0830,0.0580,47008,38972,4,16
65093,-0.3620,-8.5830,3.6250,-0.3320,-0.0580,0.0640,46981,38950,4,16
65113,-0.4110,-9.0610,3.3180,-0.5160,0.0240,-0.1480,46927,38927,3,9
65134,-0.5700,-9.1970,2.8490,-0.6130,0.1270,-0.3280,46903,38917,5,25
65154,0.9720,-9.0500,3.0040,-0.6750,0.0450,-0.0110,46890,38918,4,16
65174,-0.6620,-9.1000,2.6080,-0.6070,0.0550,-0.1850,46871,38900,4,16
65194,-0.0850,-8.4690,2.6790,-0.5540,-0.0330,-0.3040,46861,38904,4,16
65214,-0.2530,-8.6570,2.4370,-0.4930,-0.1140,-0.2770,46850,38894,4,16
65234,-0.0960,-9.0620,2.1280,-0.7430,-0.2200,-0.2630,46831,38888,3,9
65254,-0.2260,-8.1120,2.1940,-1.0140,-0.2730,-0.3580,46826,38878,4,16
65274,-0.1360,-7.1360,2.6060,-0.7600,-0.2150,-0.5590,46816,38873,4,16
65294,0.1500,-6.7440,2.7150,-0.1740,-0.1520,-0.7890,46799,38870,4,16
65314,0.6870,-7.5780,2.1070,0.4070,-0.1750,-0.9890,46777,38859,4,16
65335,0.8790,-7.8290,1.7200,0.3910,-0.2520,-1.1240,46772,38847,4,16
65355,1.2100,-7.9520,1.5690,0.1460,-0.3810,-1.2610,46758,38839,5,25
65375,1.5600,-7.8970,1.3950,-0.1970,-0.5310,-1.3990,46742,38830,3,9
65395,1.8090,-7.5540,1.2630,-0.3800,-0.6280,-1.5900,46731,38826,3,9
65415,2.2050,-7.2510,1.1500,-0.2590,-0.6670,-1.8190,46718,38820,4,16
65435,2.4190,-6.5780,1.3110,0.0750,-0.6980,-2.0450,46701,38811,4,16
65455,3.5410,-7.8960,1.1900,0.3220,-0.7980,-2.1230,46677,38804,4,16
65475,3.9790,-8.5980,0.7640,0.3120,-0.9120,-2.2440,46657,38793,4,16
65495,3.9470,-8.4500,0.4250,0.0220,-1.0610,-2.3110,46632,38778,4,16
65515,4.6210,-7.4910,1.0030,-0.1970,-1.1430,-2.3900,46599,38769,4,16
65536,5.3280,-7.1260,1.8560,0.1510,-1.0770,-2.6040,46580,38757,3,9
65556,6.4210,-8.1880,2.1060,0.5720,-1.0060,-2.7360,46563,38751,4,16
65576,6.3900,-8.4490,1.4540,0.6970,-1.0460,-2.8060,46538,38732,4,16
65596,6.0800,-8.1630,0.9860,0.4920,-1.0930,-2.7220,46505,38706,4,16
65616,6.9240,-8.5530,1.5220,0.2120,-1.0470,-2.5520,46466,38684,4,16
65636,7.8250,-9.1940,2.3420,-0.0910,-0.9620,-2.4730,46437,38674,4,16
65656,7.8350,-8.4710,2.7190,-0.2140,-0.8300,-2.5600,46421,38665,3,9
65676,8.1020,-8.7300,2.4040,-0.2600,-0.6920,-2.4780,46389,38641,3,9
65696,7.9250,-8.2590,2.0220,-0.3390,-0.4600,-2.2780,46333,38612,3,9
65717,8.0470,-8.1700,2.1800,-0.4580,-0.3230,-2.0440,46302,38593,3,9
65737,8.6180,-8.4010,2.4980,-0.6210,-0.2030,-1.8650,46275,38583,4,16
65757,9.2060,-9.0130,2.5220,-0.7760,-0.0750,-1.7980,46242,38564,3,9
65777,9.2540,-8.9040,2.3220,-0.9320,0.0330,-1.7000,46212,38552,3,9
65797,8.8860,-8.3100,1.9550,-1.0230,0.0740,-1.4860,46181,38538,3,9
65817,8.3610,-7.2140,1.5920,-0.9830,0.0800,-1.2590,46145,38517,4,16
65837,8.2170,-6.6860,1.7170,-0.8160,0.1030,-1.0450,46122,38498,2,4
65857,8.2340,-6.1510,1.8630,-0.5460,0.1330,-0.9700,46085,38476,4,16
65877,8.4400,-5.8650,1.8610,-0.3030,0.1300,-0.9850,46055,38461,3,9
65897,8.9590,-5.8230,1.6420,-0.0960,0.0920,-1.0350,45997,38433,4,16
65919,9.0800,-5.5700,1.3520,-0.1030,0.0250,-1.0350,45957,38405,4,16
65939,9.5790,-5.6370,1.3240,-0.1600,-0.0070,-0.9080,45897,38377,3,9
65959,10.0710,-5.2720,1.5710,-0.1470,0.0160,-0.8040,45843,38346,3,9
65979,10.2160,-4.7510,1.6230,-0.0140,0.0540,-0.7460,45790,38319,4,16
65999,10.2400,-4.1670,1.4280,0.1810,0.0860,-0.6940,45727,38291,3,9
66019,10.3620,-3.6490,1.4720,0.4430,0.1450,-0.6600,45678,38262,4,16
66039,10.7070,-3.2720,1.3690,0.6630,0.1980,-0.6350,45619,38230,4,16
66059,10.9550,-3.2230,1.3480,0.7300,0.2840,-0.6310,45523,38181,4,16
66080,10.8710,-3.3780,1.3420,0.5680,0.3170,-0.6090,45466,38154,3,9
66100,10.3990,-3.2150,1.3260,0.2930,0.3200,-0.5580,45418,38128,3,9
66120,10.0530,-2.8260,1.2930,0.0170,0.2840,-0.4490,45367,38102,4,16
66140,9.8010,-2.3250,1.4350,-0.1220,0.2730,-0.3380,45319,38077,4,16
66160,9.7900,-2.1010,1.6140,-0.0940,0.3140,-0.2520,45276,38057,3,9
66180,9.8050,-2.0540,1.6090,0.0040,0.3740,-0.2250,45233,38035,4,16
66200,9.7260,-2.1090,1.3490,0.0310,0.4050,-0.2270,45192,38010,5,25
66220,9.7560,-2.1690,1.1770,-0.0620,0.4170,-0.2150,45150,37991,3,9
66240,9.7680,-2.1400,1.1900,-0.2140,0.4030,-0.2150,45116,37975,3,9
66260,9.6350,-1.8510,1.3690,-0.3650,0.3690,-0.2210,45063,37946,4,16
66281,9.5590,-1.7810,1.4600,-0.3650,0.3610,-0.2340,45028,37927,4,16
66301,9.5830,-1.7900,1.4210,-0.3570,0.3550,-0.2460,44998,37908,4,16
66321,9.6060,-1.7600,1.4140,-0.3800,0.3390,-0.2420,44964,37890,3,9
66341,9.5890,-1.6710,1.4630,-0.4100,0.3230,-0.2370,44935,37873,4,16
66361,9.5560,-1.6590,1.4820,-0.4280,0.2940,-0.2300,44899,37859,3,9
66381,9.4550,-1.5660,1.5000,-0.4510,0.2700,-0.2160,44874,37850,4,16
66401,9.4000,-1.6010,1.6110,-0.4790,0.2610,-0.1800,44837,37833,4,16
66421,9.3660,-1.4960,1.6900,-0.5150,0.2480,-0.1460,44802,37803,2,4
66441,9.3830,-1.3500,1.8480,-0.5440,0.2410,-0.1150,44753,37786,4,16
66461,9.5470,-1.1980,1.9300,-0.5540,0.2250,-0.1230,44686,37751,3,9
66482,9.6040,-1.0870,1.9430,-0.5550,0.2050,-0.1720,44646,37732,3,9
66502,9.6200,-1.4660,1.9190,-0.6430,0.1810,-0.1960,44607,37713,3,9
66522,10.0050,-2.6350,2.2240,-0.8710,0.1550,-0.1700,44572,37697,4,16
66542,10.1730,-3.4920,2.4130,-0.9170,0.1720,-0.1750,44541,37682,4,16
66562,10.2040,-4.3630,2.7580,-0.7180,0.2140,0.0220,44509,37666,4,16
66582,10.1270,-5.6130,2.5690,-0.5090,0.1400,0.4860,44483,37655,3,9
66602,10.0640,-7.2810,3.0690,-0.3480,0.0160,0.9870,44476,37651,3,9
66622,9.5720,-8.5860,3.7850,0.0590,-0.1670,1.3620,44459,37645,4,16
66642,8.5100,-10.1780,3.9190,1.0330,-0.2510,1.6860,44429,37633,4,16
66663,8.0050,-11.0230,4.0380,1.5920,-0.2360,1.9870,44412,37622,3,9
66683,7.9890,-11.2000,4.5940,1.9970,-0.1980,2.4320,44391,37616,3,9
66703,7.9480,-10.5230,4.9620,2.3280,-0.1700,2.8960,44370,37602,3,9
66723,7.9030,-9.8210,4.8360,2.5420,-0.1380,3.2190,44338,37583,3,9
66743,7.9020,-9.1780,4.5750,2.7120,-0.0550,3.4380,44299,37561,3,9
66763,8.4730,-9.2240,4.4710,2.7970,0.0630,3.5860,44247,37539,3,9
66783,8.6930,-8.6850,4.3070,2.8190,0.1980,3.7160,44214,37519,4,16
66803,8.3940,-7.7720,4.3100,2.8430,0.3040,3.8460,44175,37494,4,16
66823,8.3050,-7.2760,4.4100,2.7820,0.3690,3.9670,44142,37478,3,9
66843,8.2000,-6.8790,4.3830,2.6680,0.4360,3.9010,44095,37456,4,16
66864,7.8040,-6.5300,4.1490,2.5220,0.4720,3.8460,44069,37443,4,16
66884,7.2210,-6.1610,4.0130,2.2960,0.4860,3.8140,44038,37421,4,16
66904,6.7610,-5.6970,3.8280,2.0270,0.4490,3.7490,44009,37406,3,9
66924,6.4870,-5.6380,3.9890,1.7800,0.3840,3.6390,43975,37390,3,9
66944,6.3570,-5.6980,4.7000,1.5840,0.3090,3.5230,43944,37375,4,16
66964,5.6840,-5.2220,5.2230,1.4890,0.2400,3.3650,43908,37363,4,16
66984,4.9490,-4.8540,5.5840,1.5210,0.2130,3.2030,43873,37343,4,16
67004,4.7560,-5.3690,5.8320,1.4480,0.1970,3.0400,43839,37331,4,16
67024,4.4700,-5.9470,5.6570,1.0320,0.2520,2.7550,43788,37303,4,16
67045,3.9980,-5.5870,5.7630,0.7900,0.2770,2.5600,43760,37293,3,9
67065,3.6970,-4.6480,6.2330,0.7910,0.2900,2.3430,43735,37281,3,9
67085,3.2620,-4.2860,6.2670,0.8360,0.3010,2.1300,43710,37268,3,9
67105,2.8770,-4.4290,5.7680,0.6460,0.2740,1.9170,43688,37260,3,9
67125,2.3330,-4.1730,5.5020,0.3640,0.2300,1.6400,43672,37247,4,16
67145,2.0570,-3.7880,5.5500,0.1070,0.2090,1.3280,43647,37237,4,16
67165,1.7540,-3.0850,5.6410,-0.0590,0.1670,0.9930,43629,37232,4,16
67185,1.7820,-3.4540,6.0450,-0.2370,0.0790,0.7840,43624,37227,4,16
67205,1.5970,-4.2310,6.2070,-0.3350,-0.0420,0.6140,43612,37221,4,16
67225,1.1900,-4.3860,6.2780,-0.2800,-0.1310,0.2250,43584,37212,3,9
67246,0.2780,-4.2680,5.9110,-0.1560,-0.2250,0.1090,43552,37194,3,9
67266,-0.0530,-4.7440,6.1730,-0.5640,-0.3120,0.2330,43537,37193,3,9
67286,0.1760,-4.5650,7.3810,-0.9320,-0.3660,0.3850,43523,37194,3,9
67306,0.2490,-4.6220,7.9740,-0.8570,-0.3950,0.3910,43512,37192,3,9
67326,0.4740,-5.8430,8.1880,-0.9510,-0.3440,0.4260,43500,37189,4,16
67346,0.6660,-6.6710,8.4250,-1.1360,-0.2310,0.4390,43482,37179,4,16
67366,0.4900,-6.7580,8.2820,-1.0150,0.0010,0.2830,43468,37169,4,16
67386,-0.6370,-5.8950,7.7560,-0.6610,0.4160,-0.1080,43449,37150,4,16
67406,-1.4800,-5.1310,7.4520,-0.6140,0.6730,-0.3940,43424,37140,11,121
67426,-1.2440,-5.4040,7.3180,-0.7450,0.5960,-0.6480,43381,37124,7,49
67447,-0.1290,-6.2310,6.9520,-0.5580,0.4810,-0.7540,43352,37111,5,25
67467,-0.2990,-7.3970,5.8590,-0.0080,0.3170,-0.8990,43323,37092,4,16
67487,-0.5000,-8.6390,3.9610,0.2440,0.0290,-0.9120,43290,37082,10,100
67507,-0.2720,-9.2780,3.1830,-0.4600,-0.3560,-0.5610,43262,37073,3,9
67527,0.5990,-10.4400,4.9500,-1.8460,-0.6620,0.2170,43253,37072,4,16
67547,0.3050,-8.3730,7.0430,-1.6340,-0.6940,0.6530,43231,37055,3,9
67567,0.1460,-7.8890,6.0960,-0.2210,-0.6000,0.7220,43189,37031,3,9
67587,0.3780,-9.2850,5.4060,0.6120,-0.5420,0.8180,43173,37007,5,25
67607,0.3220,-9.0870,5.9510,0.2320,-0.5220,0.8790,43132,36948,0,0
67628,0.4600,-5.4660,8.4560,-0.7760,-0.3150,0.3990,43090,36907,5,25
67648,-0.1600,-4.0450,8.2710,-0.9840,-0.3640,0.1000,43032,36869,6,36
67668,0.5570,-6.1750,6.7950,-1.1050,-0.3700,0.2260,42988,36843,2,4
67688,0.7540,-7.2390,5.0420,-0.3050,-0.2380,0.2050,42924,36809,3,9
67708,0.6720,-9.8720,3.8180,0.8880,-0.1550,0.3970,42871,36773,2,4
67728,0.8760,-11.2640,3.8340,0.7740,-0.1250,0.7830,42825,36729,8,64
67748,1.1500,-9.6010,4.5540,-0.2180,-0.2220,1.0200,42771,36669,-1,1
67768,0.2200,-7.9540,4.2650,-0.4690,-0.3810,1.1100,42705,36591,5,25
67788,-0.2620,-7.9240,4.4220,-0.0710,-0.5000,1.2220,42613,36489,5,25
67808,-0.3060,-10.5180,3.4080,0.3940,-0.7030,1.5080,42303,35283,3,9
67829,0.2320,-10.6960,3.4690,0.1410,-0.7880,1.6570,39576,33143,3,9
67849,-1.1880,-9.9430,3.3290,0.1940,-0.9730,1.7680,36874,35514,0,0
67869,-1.4140,-8.7940,4.6760,-0.0220,-1.0610,2.0130,38988,39639,3,9
67889,-1.4250,-6.3700,6.4020,-0.4240,-1.1190,2.1150,42093,43957,3,9
67909,-2.1780,-3.3820,8.3290,-0.4660,-0.8890,1.7310,43764,45517,3,9
67929,-2.6420,0.9250,11.2320,-0.2370,-0.3980,0.9610,44219,45581,4,16
67949,-2.3120,2.6720,13.1310,-0.3550,0.1520,0.1560,44318,44888,3,9
67969,-1.3650,2.1090,13.4270,-0.7690,0.6000,-0.4990,44178,43701,4,16
67989,-1.0490,-0.5060,10.8790,-0.7210,0.7780,-0.9240,43944,43096,3,9
68009,-0.3420,-7.5960,6.7180,-0.4670,0.7990,-1.1660,44186,43589,4,16
68030,-0.6730,-9.2580,5.5770,-0.2920,0.8290,-1.2860,44154,43038,4,16
68050,-1.2490,-9.2160,4.8300,-0.4880,0.6800,-1.1560,43883,41780,4,16
68070,-1.2370,-8.0230,5.3520,-0.8120,0.5670,-1.0420,43321,39745,4,16
68090,-1.0350,-5.9810,6.7160,-0.8960,0.6210,-1.2280,42342,37202,4,16
68110,-0.7830,-4.2020,7.5200,-0.6880,0.7750,-1.5160,41517,35775,4,16
68130,-0.2450,-2.9590,7.7450,-0.4260,0.9320,-1.7410,41393,35324,5,25
68150,0.1090,-2.7230,6.8760,-0.3060,1.0100,-1.9220,41375,35207,4,16
68170,0.4760,-4.1280,6.7310,-0.6270,1.1600,-1.9800,41376,35146,2,4
68190,1.0630,-4.9820,7.0130,-0.9910,1.5420,-2.4140,41364,35104,10,100
68211,1.6940,-5.4400,6.8060,-1.1780,1.8200,-2.7510,41390,35057,2,4
68231,2.4110,-6.5880,6.2620,-1.3890,2.0200,-2.9120,41437,34990,5,25
68251,2.5000,-7.4650,5.2350,-1.6080,2.1780,-2.9520,41497,34930,1,1
68271,2.3970,-7.5630,4.2260,-1.7960,2.2670,-2.9490,41556,34901,8,64
68291,3.1750,-8.0400,3.3100,-2.0140,2.2430,-2.8460,41626,34883,3,9
68311,4.2370,-8.2550,3.1400,-1.9890,2.3280,-2.7780,41709,34860,4,16
68331,5.2180,-8.3950,3.4230,-1.7320,2.5380,-2.8230,41791,34848,2,4
68351,6.1990,-8.6620,2.9140,-1.6440,2.6670,-2.8090,41851,34853,7,49
68371,6.6940,-8.5690,1.6920,-1.7340,2.5810,-2.6780,41893,34863,5,25
68391,7.0890,-9.1750,0.3020,-2.1120,2.3170,-2.2520,41929,34879,2,4
68412,7.9070,-11.1830,0.2740,-2.8310,2.1350,-1.8320,41954,34886,4,16
68432,7.7400,-12.1780,0.4570,-3.8300,2.0590,-1.5390,41978,34901,2,4
68452,6.5100,-11.1610,0.7390,-4.5820,2.0410,-1.3560,42001,34911,3,9
68472,5.3520,-9.8350,0.8090,-4.7230,1.9970,-1.1440,42023,34920,6,36
68492,4.6200,-9.1280,0.9120,-4.1960,2.0970,-0.7920,42036,34927,1,1
68512,4.6510,-9.5360,-0.6420,-3.3780,2.2550,-0.5020,42029,34928,5,25
68532,4.5560,-10.4880,-2.1520,-2.8820,2.4630,-0.4480,42039,34931,3,9
68552,4.6110,-11.2350,-3.4090,-3.0670,2.4720,-0.2910,42043,34926,2,4
68572,4.8940,-10.7390,-3.4070,-3.4210,2.3780,-0.1120,42053,34935,5,25
68592,4.8530,-8.7110,-3.4630,-3.1960,2.0610,0.0910,42074,34936,5,25
68613,4.6670,-8.3040,-4.2370,-2.6450,1.7870,0.2690,42070,34932,3,9
68633,4.2770,-7.9770,-4.8670,-2.1380,1.5760,0.3360,42065,34931,5,25
68653,3.9190,-7.9130,-5.2710,-1.7320,1.4190,0.3690,42053,34927,4,16
68673,3.8270,-8.0490,-5.2540,-1.5170,1.2960,0.3080,42049,34925,4,16
68693,3.9970,-8.5820,-5.5210,-1.6460,1.1370,0.3000,42040,34926,4,16
68713,4.1310,-8.5210,-5.8080,-1.8510,0.9680,0.2380,42039,34923,4,16
68733,4.0580,-7.9910,-5.6800,-1.8590,0.7860,0.2330,42039,34919,4,16
68753,4.0730,-8.3690,-5.9200,-1.7080,0.6120,0.2610,42025,34922,4,16
68773,4.1340,-8.9390,-5.9100,-1.6140,0.4080,0.3350,42021,34914,4,16
68794,4.0830,-8.6390,-6.1200,-1.6770,0.2500,0.4210,42019,34918,4,16
68814,4.0620,-8.3740,-6.3610,-1.7160,0.1060,0.4740,42018,34916,4,16
68834,3.9550,-8.1380,-6.3960,-1.6730,-0.0280,0.4910,42011,34915,4,16
68854,3.9240,-8.0230,-6.1120,-1.6560,-0.1550,0.5150,42005,34914,4,16
68874,3.7860,-7.6270,-5.7470,-1.5670,-0.2620,0.5140,41994,34905,3,9
68894,3.5940,-6.9800,-5.8100,-1.3500,-0.3590,0.4800,41977,34903,3,9
68914,3.6030,-6.4600,-5.9580,-1.0210,-0.4410,0.4200,41965,34894,4,16
68934,3.6540,-6.1360,-5.8310,-0.7190,-0.5170,0.3200,41956,34895,3,9
68954,3.7730,-6.1100,-5.7840,-0.5440,-0.5960,0.1860,41949,34896,3,9
68974,3.8340,-6.2600,-5.5680,-0.4780,-0.6480,-0.0480,41944,34896,3,9
68995,3.9060,-6.3040,-5.2970,-0.3730,-0.6000,-0.1720,41942,34897,4,16
69015,3.8950,-6.6380,-5.6410,-0.2420,-0.4990,-0.2780,41936,34896,4,16
69035,3.9190,-7.3610,-5.9650,-0.2740,-0.3970,-0.2930,41930,34896,5,25
69055,4.0760,-8.2380,-6.1340,-0.5590,-0.3330,-0.2030,41924,34892,4,16
69075,3.9240,-8.2300,-6.1480,-0.8710,-0.2740,-0.1170,41921,34888,3,9
69095,3.7490,-7.7120,-6.4600,-0.9940,-0.2250,-0.0160,41912,34884,4,16
69115,3.6270,-7.4360,-6.7540,-0.9290,-0.1910,0.0470,41902,34882,0,0
69135,3.4050,-6.9800,-6.9470,-0.7650,-0.1680,0.0340,41891,34876,2,4
69155,3.5000,-7.0350,-7.0310,-0.6220,-0.1520,-0.0270,41880,34875,4,16
69177,3.4800,-6.8430,-6.9440,-0.6340,-0.1490,-0.0510,41880,34875,3,9
69197,3.3570,-6.5570,-7.0400,-0.6090,-0.1450,-0.0410,41877,34876,2,4
69217,3.2740,-6.2310,-7.2150,-0.5150,-0.1300,-0.0320,41870,34877,2,4
69237,3.3890,-6.1970,-7.2760,-0.4420,-0.1190,-0.0150,41861,34873,4,16
69257,3.3850,-6.0350,-7.4500,-0.4480,-0.1120,-0.0160,41865,34874,2,4
69277,3.4790,-5.8230,-7.6890,-0.4930,-0.1110,-0.0070,41860,34872,4,16
69297,3.6390,-5.6620,-7.6770,-0.4950,-0.1090,-0.0100,41860,34873,1,1
69317,3.7170,-5.5370,-7.7060,-0.4460,-0.1050,-0.0250,41852,34872,3,9
69337,3.7580,-5.5150,-8.0000,-0.3750,-0.1120,-0.0310,41847,34865,8,64
69358,3.7340,-5.5570,-7.9440,-0.3580,-0.1240,-0.0480,41836,34857,1,1
69378,3.6420,-5.5260,-7.9920,-0.3360,-0.1340,-0.0660,41819,34853,5,25
69398,3.6090,-5.4760,-8.1180,-0.3300,-0.1430,-0.0620,41805,34848,5,25
69418,3.5880,-5.3500,-8.2780,-0.3210,-0.1570,-0.0820,41790,34847,2,4
69438,3.6500,-5.5390,-8.2350,-0.3480,-0.1730,-0.1030,41786,34845,3,9
69458,3.5520,-5.4230,-8.4590,-0.3670,-0.1870,-0.1110,41784,34845,7,49
69478,3.6190,-5.2540,-8.6530,-0.3370,-0.2160,-0.0910,41781,34848,2,4
69498,3.6820,-5.2840,-8.6920,-0.2720,-0.2480,-0.0880,41779,34844,4,16
69518,3.6030,-5.4700,-8.6070,-0.2860,-0.2740,-0.0720,41776,34847,4,16
69538,3.4240,-5.3100,-8.5280,-0.3570,-0.2780,-0.0370,41773,34847,4,16
69559,3.3380,-4.8940,-8.4850,-0.2400,-0.2520,-0.0520,41774,34848,3,9
69579,3.3910,-5.0210,-8.5070,-0.1040,-0.2240,-0.0810,41771,34846,3,9
69599,3.4070,-5.4100,-8.5770,-0.0920,-0.2040,-0.1030,41767,34842,5,25
69619,3.2290,-5.5820,-8.4720,-0.1990,-0.1990,-0.1030,41767,34841,4,16
69639,3.0020,-5.4730,-8.3340,-0.2540,-0.1930,-0.0850,41761,34841,4,16
69659,2.8600,-5.4880,-8.3350,-0.2430,-0.1900,-0.0540,41757,34839,4,16
69679,2.7290,-5.5280,-8.2780,-0.2070,-0.1920,-0.0140,41755,34836,5,25
69699,2.7070,-5.6280,-8.2920,-0.1830,-0.1920,0.0250,41747,34838,4,16
69719,2.8370,-5.3910,-8.3620,-0.1150,-0.1870,0.0460,41747,34835,4,16
69740,3.0150,-5.2350,-8.4840,0.0130,-0.1980,0.0500,41744,34839,3,9
69760,3.1240,-5.2780,-8.5680,0.1220,-0.2280,0.0470,41745,34839,3,9
69780,3.1930,-5.3860,-8.7760,0.1200,-0.2670,0.0510,41744,34837,4,16
69800,3.0950,-4.9370,-8.7700,0.1970,-0.3130,0.0260,41732,34840,3,9
69820,3.0660,-4.7540,-8.6900,0.4420,-0.3650,-0.0080,41732,34840,3,9
69840,3.0420,-4.9320,-8.3150,0.7590,-0.4360,-0.0570,41725,34835,3,9
69860,3.0660,-4.9740,-8.0090,1.0830,-0.5320,-0.1370,41717,34827,4,16
69880,3.3110,-4.9660,-7.5370,1.5050,-0.6340,-0.2490,41702,34827,4,16
69900,3.7230,-4.8530,-6.9540,2.1420,-0.7130,-0.4130,41695,34821,4,16
69920,4.2880,-5.0350,-6.8040,3.2070,-0.8190,-0.6530,41685,34830,3,9
69942,4.6380,-5.5090,-6.6990,3.6170,-0.9130,-0.8290,41698,34835,4,16
69962,5.0120,-5.8850,-6.4500,3.7780,-0.9980,-1.0590,41713,34845,4,16
69982,5.3910,-6.3230,-5.3850,3.9350,-1.0860,-1.2960,41731,34856,4,16
70002,5.5990,-7.0020,-4.1520,4.1950,-1.1110,-1.5210,41742,34863,3,9
70022,5.2180,-7.1340,-3.2570,4.5490,-1.0950,-1.6770,41748,34861,5,25
70042,4.8780,-7.5480,-3.0720,4.7530,-1.0910,-1.7070,41738,34862,4,16
70062,4.9240,-7.8820,-2.7680,4.6870,-1.0850,-1.7590,41731,34866,4,16
70082,5.1570,-7.7010,-1.9920,4.5090,-1.1120,-2.0020,41728,34871,4,16
70103,5.4520,-7.7250,-0.4820,4.5310,-1.1040,-2.1540,41731,34867,3,9
70123,5.3200,-8.2900,0.8120,4.5600,-1.0960,-2.1970,41723,34875,4,16
70143,5.2740,-9.0180,1.1090,4.2600,-1.0890,-2.1510,41717,34872,4,16
70163,5.1990,-9.4790,0.6780,3.6160,-1.0660,-2.0940,41702,34868,3,9
70183,5.1070,-9.6380,0.4350,2.7620,-0.9790,-2.0440,41696,34867,3,9
70203,5.2610,-9.4130,0.5580,1.9610,-0.8470,-2.0270,41695,34862,4,16
70223,5.4710,-8.9830,1.0630,1.3050,-0.6790,-1.9970,41689,34857,4,16
70243,6.0560,-9.5540,1.5140,0.6300,-0.5190,-1.8390,41691,34862,4,16
70263,6.1700,-9.2100,1.7480,-0.0010,-0.4260,-1.7110,41694,34862,4,16
70283,6.1200,-7.7420,2.2490,-0.3580,-0.2800,-1.5030,41688,34860,3,9
70304,6.2990,-7.2200,2.5410,-0.0950,-0.1410,-1.4290,41676,34855,4,16
70324,6.5000,-6.9440,2.7620,0.3900,0.0580,-1.4340,41672,34853,3,9
70344,6.7880,-6.7050,3.0550,0.9070,0.2520,-1.4800,41661,34851,3,9
70364,7.1620,-6.8230,3.1100,1.2680,0.3890,-1.4640,41656,34853,2,4
70384,7.4160,-7.0260,2.8840,1.3450,0.4450,-1.3970,41652,34849,4,16
70404,7.6960,-7.3090,2.7250,1.1000,0.4210,-1.2760,41647,34851,4,16
70424,7.9920,-7.4740,2.8960,0.6260,0.3640,-1.0770,41655,34854,3,9
70444,8.1160,-7.2010,3.1840,0.1150,0.2870,-0.8480,41658,34855,4,16
70464,8.0710,-6.8130,3.4070,-0.2530,0.2180,-0.6500,41652,34858,4,16
70484,7.8730,-6.3480,3.4560,-0.4460,0.2030,-0.4460,41652,34852,3,9
70505,7.8330,-6.1040,3.5820,-0.3690,0.2670,-0.3780,41650,34855,3,9
70525,7.8570,-6.2740,3.7450,-0.2880,0.3360,-0.2780,41651,34852,3,9
70545,7.7620,-6.2400,3.9370,-0.2690,0.4090,-0.1800,41651,34845,4,16
70565,7.5790,-6.1090,3.9380,-0.3180,0.4650,-0.0880,41645,34847,4,16
70585,7.3110,-5.8310,3.8400,-0.4090,0.4970,-0.0250,41644,34847,4,16
70605,7.0280,-5.7160,3.7450,-0.5250,0.5200,0.0410,41641,34845,3,9
70625,6.8060,-5.6670,3.7110,-0.6430,0.5420,0.0920,41637,34839,4,16
70645,6.7470,-5.6180,3.8580,-0.6960,0.5780,0.1410,41638,34842,3,9
70665,6.5840,-5.4530,3.9180,-0.6660,0.6000,0.1910,41635,34840,3,9
70686,6.3410,-5.3040,3.7410,-0.6020,0.5910,0.1920,41633,34840,4,16
70706,6.0490,-5.0150,3.5050,-0.5090,0.5540,0.1650,41631,34840,4,16
70726,6.0570,-4.9370,3.4640,-0.4230,0.5130,0.1420,41633,34841,4,16
70746,6.2200,-4.7420,3.5450,-0.3290,0.4530,0.0700,41635,34840,3,9
70766,6.3710,-4.5730,3.5050,-0.2190,0.3660,-0.0510,41628,34843,4,16
70786,6.5130,-4.5000,3.4500,-0.1300,0.2520,-0.1730,41632,34837,7,49
70806,6.6140,-4.2500,3.3280,-0.0640,0.1200,-0.2820,41626,34838,3,9
70826,6.5800,-3.6430,3.3220,0.0290,-0.0150,-0.3840,41619,34831,5,25
70846,6.5460,-2.9280,3.4080,0.2040,-0.1350,-0.5090,41611,34824,7,49
70866,6.7560,-2.2060,3.6280,0.5430,-0.3050,-0.8340,41603,34825,7,49
70887,8.0550,-3.6070,3.8800,0.6570,-0.3730,-0.9900,41601,34820,3,9
70907,8.6950,-4.3350,3.7850,0.6140,-0.4450,-1.1640,41600,34824,2,4
70927,8.4230,-4.2250,3.1750,0.3950,-0.5650,-1.2080,41599,34819,3,9
70947,8.3230,-4.0570,2.9150,0.0470,-0.6780,-0.9840,41589,34822,3,9
70967,9.1410,-4.8590,3.5300,-0.2970,-0.7240,-0.7010,41593,34818,3,9
70987,9.9160,-5.5510,3.8880,-0.4330,-0.7000,-0.6300,41587,34822,3,9
71007,10.1270,-5.7010,3.8440,-0.3600,-0.5970,-0.5880,41596,34824,3,9
71027,10.2270,-5.8530,3.7880,-0.2200,-0.4940,-0.4040,41595,34817,5,25
71047,10.2210,-6.1140,3.7100,-0.1300,-0.3950,-0.1860,41590,34821,3,9
71067,10.0530,-6.8200,3.3610,-0.2760,-0.2170,0.1170,41590,34818,7,49
71088,9.6880,-6.8100,3.0950,-0.4560,-0.1140,0.2680,41584,34819,4,16
71108,9.2020,-6.5670,2.8750,-0.6400,-0.0220,0.4530,41582,34819,2,4
71128,8.8940,-6.2620,2.7260,-0.7580,0.0330,0.6340,41578,34813,2,4
71148,8.6830,-5.9170,2.5130,-0.7940,0.0860,0.7820,41578,34814,4,16
71168,8.6300,-5.8620,2.2390,-0.7430,0.1350,0.8910,41574,34810,4,16
71188,8.4720,-5.6120,1.9840,-0.6270,0.1680,0.9640,41571,34803,5,25
71208,8.3610,-5.5150,1.8140,-0.5120,0.1680,1.0750,41570,34804,4,16
71228,8.4010,-5.6540,1.6050,-0.4370,0.1400,1.1590,41568,34803,4,16
71248,8.2610,-5.5930,1.4600,-0.3300,0.0950,1.2050,41557,34794,4,16
71269,8.1620,-5.5510,1.3840,-0.2160,0.0560,1.2030,41549,34793,4,16
71289,8.1310,-5.6240,1.3610,-0.0510,0.0300,1.1860,41535,34782,3,9
71309,8.1970,-6.0430,1.3160,0.1100,0.0210,1.1720,41521,34783,4,16
71329,7.8470,-6.0850,1.2440,0.2620,0.0060,1.1380,41513,34782,5,25
71349,7.6950,-6.3730,1.3110,0.4510,0.0200,1.1240,41505,34778,4,16
71369,7.4020,-6.8530,1.3260,0.5740,0.0290,1.1550,41500,34775,4,16
71389,7.0570,-7.1130,1.3340,0.5930,0.0520,1.1850,41490,34769,3,9
71409,7.2770,-7.1050,1.4450,0.5480,0.0490,1.1940,41486,34769,3,9
71429,7.2300,-7.2360,1.6410,0.4700,0.0330,1.1760,41478,34767,3,9
71449,6.8330,-7.2300,1.5710,0.3150,-0.0100,1.1390,41475,34764,4,16
71470,6.5330,-7.2260,1.5530,0.1890,-0.0460,1.1580,41475,34763,3,9
71490,6.9050,-7.3290,1.7720,0.0770,-0.0760,1.1890,41477,34763,4,16
71510,6.9670,-7.3080,1.9690,0.0240,-0.1140,1.1720,41478,34762,4,16
71530,6.9960,-7.2720,2.0120,0.0280,-0.1260,1.1310,41478,34765,4,16
71550,6.8250,-7.3380,2.2030,0.0520,-0.1240,1.1020,41484,34766,3,9
71570,6.2150,-7.1160,2.6430,0.0850,-0.1220,1.0900,41478,34756,4,16
71590,5.5040,-7.3630,2.8710,0.0390,-0.1020,1.0860,41478,34761,3,9
71610,4.9260,-7.6410,3.0960,-0.1240,-0.0460,1.0080,41474,34759,4,16
71630,4.5310,-8.1890,3.3080,-0.4220,0.0220,0.9120,41475,34761,3,9
71650,4.1840,-8.9580,3.5450,-1.1150,0.1200,0.8720,41479,34761,3,9
71671,3.8220,-8.9960,3.5420,-1.5960,0.1650,0.9270,41481,34763,2,4
71691,3.5000,-9.4810,3.1420,-2.1030,0.1890,0.9990,41483,34765,3,9
71711,3.1880,-9.5150,2.8180,-2.5880,0.2090,0.9870,41478,34764,3,9
71731,3.2140,-9.6560,2.1870,-3.0930,0.1760,0.9860,41488,34761,4,16
71751,3.6860,-9.9070,1.6260,-3.4820,0.1570,0.9450,41484,34761,4,16
71771,4.0930,-9.7080,1.2390,-3.6190,0.1970,0.9000,41482,34758,4,16
71791,4.5200,-9.0010,0.7180,-3.3300,0.2620,0.8050,41481,34750,4,16
71811,4.5610,-8.1940,-0.4760,-2.7990,0.2650,0.7190,41461,34746,4,16
71831,4.8290,-8.4300,-2.2690,-2.0750,0.2320,0.6850,41451,34732,9,81
71852,4.9450,-8.8530,-2.7310,-1.9390,0.2450,0.6320,41453,34737,4,16
71872,4.7980,-8.6420,-2.5640,-2.0470,0.2930,0.5460,41452,34733,1,1
71892,4.5450,-8.1980,-2.5770,-2.2160,0.3590,0.3920,41443,34731,5,25
71912,4.4770,-7.6940,-2.9990,-2.2220,0.4570,0.2510,41441,34724,3,9
71932,4.5140,-7.3360,-3.3640,-1.9520,0.6140,0.1420,41438,34719,4,16
71952,4.8950,-7.4940,-3.7610,-1.5590,0.7170,0.1620,41436,34720,4,16
71972,5.0050,-7.7910,-3.9090,-1.2080,0.8060,0.2280,41441,34712,5,25
71992,4.7810,-7.7960,-4.0220,-1.1170,0.8070,0.2860,41445,34711,4,16
72012,4.2770,-7.4330,-4.0270,-1.1180,0.7660,0.2450,41442,34712,5,25
72032,3.5760,-6.5860,-3.9500,-0.9730,0.7680,0.0560,41439,34705,4,16
72053,3.5600,-6.5470,-4.5330,-0.7470,0.7970,-0.1050,41437,34704,4,16
72073,4.1020,-7.1910,-4.5790,-0.4860,0.8270,-0.2460,41438,34705,4,16
72093,4.1080,-7.2410,-4.0230,-0.4060,0.8330,-0.2940,41446,34708,3,9
72113,4.0030,-7.6080,-3.5950,-0.5340,0.7890,-0.2120,41444,34704,3,9
72133,3.8870,-7.5320,-3.5090,-0.6650,0.8200,-0.2720,41448,34703,4,16
72153,3.6010,-6.8040,-3.7370,-0.6210,0.9300,-0.3790,41446,34700,4,16
72173,3.8790,-6.8990,-4.3250,-0.5430,1.0540,-0.4310,41447,34703,6,36
72193,4.4980,-7.3050,-4.6210,-0.6270,1.1170,-0.4890,41452,34702,4,16
72213,5.4530,-7.4180,-4.2280,-0.7920,1.0920,-0.5150,41447,34693,4,16
72235,5.7050,-7.5420,-4.2710,-0.8070,1.0630,-0.5010,41437,34684,4,16
72255,5.7640,-7.4720,-4.8170,-0.8740,1.0510,-0.4390,41423,34682,3,9
72275,5.8500,-7.2890,-5.2830,-0.9720,1.0410,-0.3790,41419,34675,4,16
72295,5.8070,-6.7560,-5.0460,-0.8910,0.9990,-0.3460,41411,34678,2,4
72315,6.1260,-7.0070,-4.4980,-0.6880,0.9350,-0.2970,41409,34671,4,16
72335,6.4600,-7.5850,-4.5240,-0.6100,0.8460,-0.2530,41410,34669,4,16
72355,6.7430,-7.9100,-4.5180,-0.6350,0.7400,-0.1890,41412,34666,3,9
72375,6.5210,-7.8360,-4.7800,-0.5940,0.6180,-0.1050,41412,34664,3,9
72395,6.4850,-7.6810,-4.6760,-0.5710,0.4800,0.0930,41410,34664,5,25
72416,6.2460,-7.1220,-4.6570,-0.4990,0.4180,0.2030,41408,34662,5,25
72436,6.1140,-6.6930,-4.8670,-0.2800,0.3960,0.2620,41406,34658,4,16
72456,6.1050,-6.3310,-4.9940,-0.1060,0.3560,0.2670,41409,34661,4,16
72476,6.2450,-6.2580,-5.1060,-0.0390,0.3220,0.2240,41408,34663,3,9
72496,6.1230,-5.9970,-5.2950,-0.0260,0.2850,0.1810,41412,34663,4,16
72516,6.1690,-6.0450,-5.0760,0.0480,0.2560,0.1370,41413,34663,5,25
72536,6.1790,-5.9460,-5.0470,0.0990,0.2260,0.0950,41411,34661,3,9
72556,6.1300,-5.9200,-5.1570,0.1840,0.2070,0.0500,41409,34663,4,16
72576,5.9500,-6.2970,-4.7660,0.2220,0.1740,0.0050,41410,34665,4,16
72596,5.8240,-6.5770,-4.3830,0.2090,0.1240,-0.0140,41405,34664,3,9
72617,5.6830,-6.6060,-4.2350,0.2810,0.1160,-0.0440,41406,34664,2,4
72637,5.7450,-6.6910,-3.8860,0.4790,0.1360,-0.0940,41408,34662,3,9
72657,5.7440,-6.9250,-3.8830,0.7070,0.1590,-0.1310,41402,34663,4,16
72677,5.8170,-7.2570,-3.5820,0.8270,0.1620,-0.1520,41411,34661,3,9
72697,5.7830,-7.3710,-3.3610,0.8980,0.1560,-0.1650,41403,34658,4,16
72717,5.6870,-7.4440,-3.3260,0.9810,0.1740,-0.2020,41398,34657,4,16
72737,5.9320,-8.4260,-3.1820,0.8030,0.1690,-0.1760,41394,34654,4,16
72757,6.1090,-8.7050,-2.8620,0.4980,0.1650,-0.1550,41389,34654,3,9
72777,5.9010,-8.2650,-1.7960,0.3050,0.1430,-0.0630,41382,34643,4,16
72798,5.7770,-7.9830,-2.5230,0.4770,0.2400,-0.0310,41383,34650,4,16
72818,5.6360,-7.6910,-2.6260,0.7290,0.2850,-0.0840,41387,34653,4,16
72838,5.5610,-7.9100,-2.7140,0.9110,0.3310,-0.1060,41393,34658,4,16
72858,5.9960,-8.2830,-3.1620,0.7800,0.2940,-0.0700,41401,34667,4,16
72878,6.3610,-8.4690,-3.0290,0.4560,0.2030,-0.0350,41406,34666,4,16
72898,6.1270,-7.6810,-2.6480,0.2930,0.0820,0.0170,41411,34667,3,9
72918,6.1660,-6.7710,-1.9860,0.5370,0.0040,0.0290,41416,34671,3,9
72938,5.8930,-5.9900,-1.5920,1.0350,-0.0190,0.0070,41418,34675,2,4
72958,5.8050,-6.1420,-1.4960,1.3690,0.0070,0.0080,41414,34677,3,9
72978,6.0090,-7.6050,-1.3140,1.0790,0.0690,-0.1290,41422,34681,3,9
72999,5.8200,-8.0280,-0.9460,0.5180,0.1100,-0.2700,41429,34680,4,16
73019,5.6980,-8.6770,-0.7570,-0.0010,0.1900,-0.3640,41424,34677,4,16
73039,5.2090,-9.1760,-0.7390,-0.3390,0.2840,-0.3360,41423,34674,22,484
73059,4.9090,-8.8650,-0.3320,-0.5260,0.3220,-0.1130,41415,34676,2,4
73079,5.2600,-8.7120,-0.2120,-0.5030,0.3680,0.0300,41436,34686,0,0
73099,5.4170,-9.1290,-1.2740,-0.3670,0.4180,0.0310,41443,34685,3,9
73119,6.2480,-9.0560,-1.6050,-0.3450,0.3650,0.0300,41444,34691,11,121
73139,6.6880,-9.3450,-2.2290,-0.3870,0.2490,0.0420,41440,34679,6,36
73159,6.1240,-8.8020,-2.1360,-0.4380,0.0090,0.2950,41427,34676,-32,1024
73181,5.6950,-9.1180,-2.7040,-0.3650,-0.0750,0.3990,41420,34668,2,4
73201,5.4700,-9.1700,-3.5540,-0.5660,-0.1310,0.4840,41418,34672,25,625
73221,5.6350,-8.3630,-3.4800,-0.8950,-0.2210,0.6620,41415,34674,-12,144
73241,5.9660,-7.1190,-3.3790,-1.0560,-0.3590,0.7430,41418,34674,7,49
73261,6.0470,-6.4870,-3.4860,-1.0730,-0.5030,0.6890,41426,34678,-3,9
73281,6.3090,-6.7280,-3.7450,-1.2850,-0.5990,0.5890,41429,34684,-1,1
73301,6.5580,-7.0340,-3.7330,-1.7100,-0.6310,0.4910,41441,34687,2,4
73321,6.1020,-7.2050,-3.3900,-2.1570,-0.6060,0.3580,41445,34687,2,4
73341,5.8130,-6.3700,-3.7820,-2.2690,-0.4520,0.2310,41441,34688,4,16
73362,5.9530,-6.0420,-3.8880,-1.8610,-0.3630,0.1150,41445,34686,3,9
73382,5.8160,-5.8930,-3.7860,-1.2640,-0.3310,-0.0160,41450,34687,1,1
73402,5.3710,-5.9760,-3.8580,-0.5780,-0.3370,-0.0950,41456,34690,4,16
73422,5.1510,-6.4000,-3.7540,-0.0570,-0.3660,-0.1630,41464,34690,0,0
73442,5.1980,-7.1600,-3.7970,0.1690,-0.3800,-0.2150,41474,34698,8,64
73462,5.2720,-7.7010,-3.9250,0.1500,-0.3220,-0.2470,41484,34704,0,0
73482,5.3760,-7.4580,-4.0150,0.0360,-0.2310,-0.2120,41506,34712,-1,1
73502,5.4890,-6.9980,-3.8330,0.0720,-0.1730,-0.2200,41515,34710,2,4
73522,5.7110,-7.1380,-3.6630,0.2070,-0.1640,-0.2260,41509,34714,5,25
73542,5.6930,-7.6490,-3.8180,0.1570,-0.1910,-0.2640,41515,34714,0,0
73563,5.5630,-7.7870,-3.6090,0.0010,-0.1650,-0.2110,41517,34722,4,16
73583,5.5050,-7.4170,-3.3880,0.0170,-0.0930,-0.2300,41518,34717,5,25
73603,5.4880,-6.9640,-3.6100,0.1880,-0.0020,-0.2100,41511,34713,0,0
73623,5.4710,-6.9220,-4.1950,0.3360,0.0910,-0.2000,41512,34715,4,16
73643,5.5750,-6.8220,-4.5850,0.3620,0.1320,-0.2340,41511,34715,1,1
73663,5.8220,-6.7610,-4.5530,0.3390,0.1280,-0.2690,41508,34710,1,1
73683,5.9950,-6.7700,-4.5790,0.3710,0.0810,-0.3220,41509,34712,4,16
73703,6.0540,-7.0920,-4.9280,0.2810,0.0240,-0.3360,41500,34711,-1,1
73723,6.0200,-6.8850,-5.1100,0.1850,0.0070,-0.2880,41494,34706,5,25
73744,6.1290,-6.7250,-5.1620,0.2030,0.0100,-0.2320,41498,34710,4,16
73764,6.1380,-6.6200,-5.2290,0.2460,-0.0220,-0.2790,41505,34717,-1,1
73784,6.2170,-6.3720,-5.0820,0.4240,-0.0550,-0.3680,41521,34728,6,36
73804,6.3460,-6.7210,-5.0030,0.6740,-0.1150,-0.4230,41524,34733,13,169
73824,6.6150,-7.3020,-4.5170,0.7750,-0.2220,-0.3770,41531,34731,-2,4
73844,6.3890,-8.0520,-4.2880,0.6220,-0.2970,-0.2500,41531,34738,6,36
73864,6.0270,-8.1670,-4.2860,0.2780,-0.2970,-0.1030,41531,34732,0,0
73884,5.9440,-7.6090,-4.3280,0.0430,-0.2220,-0.0250,41533,34735,5,25
73904,5.9350,-6.7610,-4.2100,0.1120,-0.1730,-0.0510,41543,34747,4,16
73924,6.6040,-6.9470,-4.5570,0.4340,-0.2170,-0.1570,41559,34752,5,25
73945,6.5170,-6.8640,-4.1500,0.4990,-0.3310,-0.1440,41558,34747,5,25
73965,6.3930,-7.3440,-4.0490,0.4710,-0.3600,-0.0240,41551,34747,3,9
73985,6.1910,-7.6320,-4.2770,0.2940,-0.2900,0.0740,41546,34746,2,4
74005,6.1830,-7.3600,-4.5080,0.0410,-0.2120,0.1830,41546,34746,4,16
74025,6.4690,-6.7490,-3.7110,0.0090,-0.1920,0.1920,41546,34742,6,36
74045,6.2780,-7.0560,-3.2970,0.1200,-0.2700,0.0070,41537,34730,2,4
74065,5.6950,-7.9320,-4.0070,-0.0250,-0.2570,-0.0430,41533,34737,7,49
74085,5.3470,-8.2190,-4.4100,-0.4760,-0.2050,-0.0170,41539,34739,5,25
74105,5.2400,-8.6190,-4.6200,-0.8950,-0.1000,-0.0900,41558,34756,5,25
74125,5.4770,-7.1950,-4.2760,-1.0050,-0.0080,0.0200,41582,34755,2,4
74146,5.7650,-5.9180,-3.7840,-0.5210,-0.0330,0.1140,41568,34745,8,64
74166,6.0170,-6.4550,-4.1790,-0.0160,-0.1420,0.0830,41554,34741,5,25
74186,5.9220,-7.5390,-4.8930,-0.0130,-0.1910,0.0340,41540,34740,4,16
74206,5.7870,-7.8550,-4.7230,-0.3300,-0.1610,0.1140,41539,34737,8,64
74226,5.6900,-7.2680,-3.9670,-0.4960,-0.1080,0.1630,41528,34730,5,25
74246,5.6690,-6.9700,-3.7060,-0.3110,-0.0840,0.1770,41518,34721,3,9
74266,5.5170,-7.0270,-4.0710,-0.0730,-0.0280,0.1490,41512,34719,4,16
74286,5.5780,-7.3440,-4.6350,-0.0780,0.0620,0.2130,41518,34727,3,9
74306,5.8660,-7.3550,-5.2530,-0.2880,0.1410,0.1910,41542,34732,3,9
74327,5.8320,-7.0710,-5.2820,-0.4190,0.1310,0.1770,41548,34732,4,16
74347,5.7860,-6.9490,-5.2640,-0.3820,0.1120,0.1520,41545,34731,4,16
74367,5.7140,-6.6240,-5.4740,-0.2450,0.1040,0.1430,41537,34731,3,9
74387,5.5640,-6.7150,-5.5980,-0.1020,0.0920,0.1430,41536,34726,2,4
74407,5.2680,-7.1670,-5.2350,-0.1180,0.0620,0.0980,41529,34725,2,4
74427,5.0250,-7.2420,-5.1460,-0.1990,0.0430,0.0260,41530,34724,3,9
74447,4.8170,-6.8400,-5.2590,-0.2100,0.0570,-0.0490,41533,34724,3,9
74467,4.7370,-6.2990,-4.9030,0.0260,0.0940,-0.1310,41536,34724,3,9
74487,5.2130,-6.5110,-4.3850,0.3490,0.0750,-0.2000,41534,34725,4,16
74507,6.0820,-7.4240,-3.9760,0.4630,0.0200,-0.1990,41534,34722,3,9
74528,6.1040,-7.7910,-3.0230,0.4890,-0.0270,-0.1280,41520,34704,4,16
74548,5.5400,-7.3590,-2.2100,0.5500,-0.1290,-0.0580,41499,34696,4,16
74568,5.0910,-7.7310,-3.0420,0.5540,-0.0280,-0.0020,41495,34697,4,16
74588,5.1380,-7.4330,-3.8180,0.4580,0.1540,0.0600,41502,34703,4,16
74608,5.6180,-7.1690,-3.9580,0.4170,0.2610,-0.0410,41517,34706,4,16
74628,5.9080,-6.7560,-3.7030,0.4970,0.2200,-0.1550,41521,34707,4,16
74648,5.9480,-7.1410,-4.0700,0.6470,0.1560,-0.2140,41510,34699,4,16
74668,5.7960,-7.1070,-4.0350,0.7270,0.0850,-0.2320,41499,34688,4,16
74688,5.6370,-7.0890,-3.8120,0.8190,0.0490,-0.2590,41485,34691,4,16
74708,5.6870,-7.4230,-3.5090,0.9410,0.0730,-0.3140,41478,34685,3,9
74729,5.8970,-7.4710,-3.4820,1.0190,0.0630,-0.3650,41476,34688,3,9
74749,5.7010,-7.0990,-3.3890,1.2410,0.0490,-0.3380,41472,34680,4,16
74769,6.0300,-7.5330,-2.9880,1.4200,0.0290,-0.3180,41462,34679,4,16
74789,6.0070,-8.2920,-3.0750,1.3040,0.0170,-0.3010,41463,34676,3,9
74809,6.0910,-8.6240,-3.0100,0.9050,0.0150,-0.2310,41468,34678,4,16
74829,6.1450,-8.2790,-2.7080,0.5270,0.0200,-0.2040,41466,34678,4,16
74849,6.1050,-7.6060,-2.4460,0.3810,0.0030,-0.1970,41470,34676,4,16
74869,6.1030,-7.3170,-1.9200,0.4560,-0.0210,-0.1960,41470,34680,4,16
74889,6.4090,-7.6660,-1.2860,0.5950,-0.0180,-0.2070,41469,34677,4,16
74910,6.6240,-8.3560,-1.1950,0.3910,0.0040,-0.1710,41467,34678,3,9
74930,6.6770,-8.9180,-1.1590,-0.1620,0.0350,-0.0850,41471,34681,4,16
74950,6.5110,-8.8010,-0.9760,-0.8980,0.0570,0.0130,41463,34676,4,16
74970,6.3640,-8.1460,-0.5960,-1.3020,0.0920,0.0470,41464,34677,4,16
74990,6.2760,-7.3310,-0.8870,-1.3050,0.1360,0.0940,41462,34676,4,16
75010,6.3410,-7.8280,-1.1240,-1.1330,0.1400,0.0910,41453,34673,3,9
75030,5.9650,-7.6480,-0.9530,-0.9820,0.1040,0.0750,41451,34669,3,9
75050,5.4990,-7.3740,-1.0520,-0.7850,0.0970,0.1350,41447,34665,3,9
75070,5.2440,-7.2530,-1.4750,-0.6540,0.1550,0.1400,41440,34664,4,16
75090,5.2190,-7.4280,-2.5100,-0.7120,0.2690,0.0270,41437,34660,4,16
75111,5.3200,-7.2890,-3.2450,-0.8440,0.3070,-0.0650,41434,34657,4,16
75131,5.4710,-7.2030,-3.8590,-0.9090,0.3070,-0.1300,41420,34646,3,9
75151,5.8590,-7.4400,-4.3980,-0.8550,0.2590,-0.1700,41408,34639,4,16
75171,6.4740,-7.3680,-3.9420,-0.7940,0.1300,-0.1600,41387,34626,3,9
75191,6.5970,-6.3600,-3.2420,-0.7460,-0.1770,-0.0280,41379,34623,4,16
75211,6.0970,-6.5360,-3.6250,-0.3910,-0.2290,0.0390,41375,34623,4,16
75231,5.8590,-5.9410,-2.6950,-0.0340,-0.2980,-0.0710,41365,34618,4,16
75251,5.4970,-6.5550,-2.5690,0.2690,-0.2630,-0.1960,41368,34618,4,16
75271,5.5020,-6.9140,-2.3570,0.3630,-0.2040,-0.3260,41364,34617,3,9
75292,5.2440,-6.4990,-2.3100,0.5350,-0.1510,-0.3470,41363,34614,3,9
75312,5.2760,-6.2420,-2.3950,0.9490,-0.1010,-0.4630,41363,34618,3,9
75332,5.5670,-6.2130,-2.7650,1.5000,-0.0740,-0.6430,41371,34624,4,16
75352,5.9440,-6.7250,-3.1820,1.9580,-0.0970,-0.7220,41376,34627,4,16
75372,6.4250,-7.6300,-2.7400,2.1110,-0.2290,-0.7080,41393,34633,4,16
75392,6.4860,-8.1940,-2.7040,2.0380,-0.3460,-0.6300,41392,34628,3,9
75412,6.9190,-8.2350,-2.9650,1.8180,-0.4420,-0.5180,41399,34633,5,25
75432,7.4630,-7.8360,-2.8960,1.6360,-0.4980,-0.4310,41407,34636,4,16
75452,7.7180,-7.2530,-2.3880,1.5480,-0.5780,-0.4050,41401,34638,4,16
75472,7.5930,-6.6000,-0.9280,1.9550,-0.6650,-0.5400,41397,34628,3,9
75493,7.1250,-7.3170,-0.9710,2.1410,-0.6240,-0.5050,41392,34628,3,9
75513,7.4360,-8.1880,-0.9330,1.8600,-0.5710,-0.4090,41392,34628,4,16
75533,7.5310,-7.8810,-0.8080,1.4010,-0.5210,-0.3930,41384,34627,3,9
75553,7.4880,-7.3670,-0.9300,1.0950,-0.4540,-0.3950,41392,34630,3,9
75573,7.4850,-7.2130,-0.9550,0.8770,-0.4190,-0.3040,41389,34630,4,16
75593,7.7090,-6.9050,-0.9010,0.6250,-0.4370,-0.2410,41383,34627,4,16
75613,7.6900,-6.4520,-1.0040,0.4920,-0.4420,-0.2480,41377,34621,4,16
75633,7.8890,-6.2500,-1.0770,0.4960,-0.4340,-0.2860,41366,34621,3,9
75653,7.9320,-6.5650,-1.2390,0.3100,-0.4590,-0.2410,41358,34618,4,16
75673,7.5060,-6.0910,-1.1290,0.1060,-0.4400,-0.1870,41353,34616,4,16
75694,7.4880,-6.1080,-0.9550,0.3480,-0.3980,-0.2810,41349,34614,3,9
75714,7.4580,-6.5050,-1.1430,0.5700,-0.3750,-0.3500,41346,34612,4,16
75734,7.5920,-7.3720,-1.4190,0.5070,-0.3810,-0.2610,41342,34612,4,16
75754,7.9610,-7.5750,-1.1830,0.3030,-0.3980,-0.1830,41341,34610,5,25
75774,7.9850,-7.4160,-1.0740,0.1770,-0.3950,-0.1430,41343,34605,4,16
75794,8.0030,-7.5640,-1.1910,0.0540,-0.3820,-0.0250,41333,34603,3,9
75814,8.0330,-7.7120,-1.0910,-0.0930,-0.3540,0.0630,41334,34606,3,9
75834,8.0550,-7.4990,-0.9970,-0.2090,-0.3160,0.1230,41335,34603,4,16
75854,8.0390,-7.0660,-0.8420,-0.6500,-0.3670,0.2140,41331,34595,3,9
75875,8.0510,-6.8350,-0.6130,-0.9610,-0.3770,0.2490,41328,34598,3,9
75895,7.5610,-6.6770,-0.3640,-1.0830,-0.2990,0.2450,41323,34599,3,9
75915,7.4110,-6.7030,0.1710,-0.9560,-0.2050,0.1930,41321,34597,4,16
75935,7.1660,-6.9520,0.2050,-0.7670,-0.1300,0.1580,41311,34589,4,16
75955,6.9480,-7.7380,-0.2000,-0.8250,-0.0660,0.2140,41312,34592,4,16
75975,7.1650,-8.1190,-0.8060,-1.2530,-0.0070,0.3460,41313,34589,4,16
75995,7.3740,-7.8060,-1.3720,-1.6700,0.0870,0.4260,41314,34590,3,9
76015,7.4360,-7.5740,-1.7030,-1.8470,0.1730,0.4350,41316,34587,4,16
76035,7.5430,-7.2930,-1.7350,-1.8540,0.2040,0.4710,41309,34582,4,16
76055,7.3430,-7.2500,-2.0820,-1.6860,0.1510,0.5440,41304,34579,4,16
76076,7.5330,-7.9420,-2.5070,-1.7900,0.1080,0.5910,41303,34574,3,9
76096,7.2990,-7.8590,-3.2050,-2.0880,0.1010,0.7150,41292,34568,2,4
76116,7.2150,-7.4460,-3.3350,-2.2660,0.1120,0.8600,41271,34559,4,16
76136,6.8700,-7.2250,-3.7880,-2.3550,0.1090,0.9080,41261,34552,3,9
76156,6.3410,-6.8160,-4.3590,-2.4060,0.1260,0.9520,41249,34544,3,9
76176,6.1180,-6.3090,-4.6650,-2.2660,0.1610,0.9520,41240,34539,3,9
76196,6.4210,-6.7560,-5.0110,-2.0910,0.1860,0.9850,41234,34536,3,9
76216,6.4550,-6.9590,-5.7070,-2.2090,0.1550,1.0010,41227,34530,3,9
76236,6.2900,-7.0450,-6.3590,-2.5670,0.0680,1.0760,41228,34530,4,16
76256,5.9910,-5.7680,-6.3890,-2.7360,-0.0120,1.1200,41220,34523,4,16
76277,5.7270,-5.0950,-6.6650,-2.4160,-0.0390,1.1280,41214,34515,3,9
76297,5.5380,-4.7700,-7.2960,-2.0750,-0.0530,1.0720,41214,34515,4,16
76317,5.2830,-4.6750,-7.4520,-1.7540,-0.0560,1.0180,41220,34518,4,16
76337,5.1190,-4.7520,-7.2760,-1.5390,-0.0560,0.9380,41227,34513,4,16
76357,4.8550,-4.4950,-7.2420,-1.3970,-0.0660,0.8340,41235,34522,4,16
76377,4.7250,-4.2320,-7.2410,-1.1990,-0.0350,0.7160,41249,34520,4,16
76397,4.5840,-3.8930,-7.3970,-0.9100,0.0040,0.6020,41256,34530,3,9
76417,4.6180,-3.9290,-7.3140,-0.6150,0.0300,0.4970,41270,34534,3,9
76437,4.7960,-4.3020,-7.1230,-0.2970,0.0610,0.3760,41286,34542,5,25
76458,4.9190,-4.4640,-7.1000,-0.2380,0.0530,0.3200,41296,34545,4,16
76478,4.9960,-4.6000,-7.0840,-0.1270,0.0620,0.2500,41299,34548,3,9
76498,5.0130,-4.8080,-6.9530,-0.0130,0.0990,0.2290,41308,34550,4,16
76518,5.1640,-4.8100,-6.8080,0.0460,0.1190,0.2400,41303,34545,3,9
76538,5.3030,-4.7480,-6.6420,0.1210,0.1240,0.1870,41307,34551,2,4
76558,5.0950,-4.6060,-6.5420,0.2250,0.1560,0.1230,41310,34545,3,9
76578,4.8390,-4.7430,-6.2150,0.2390,0.1880,0.0390,41304,34542,4,16
76598,4.4040,-5.1640,-6.3830,0.2410,0.2490,-0.0810,41295,34537,3,9
76618,4.0530,-5.0400,-6.6180,0.2170,0.3360,-0.1360,41282,34531,4,16
76638,4.6200,-5.9720,-7.0760,0.2810,0.4580,-0.1810,41278,34535,4,16
76659,4.9870,-6.4140,-7.6660,0.0870,0.4710,-0.1730,41276,34533,4,16
76679,5.2910,-6.3150,-7.7540,-0.0680,0.4180,-0.1370,41279,34527,3,9
76699,5.4470,-6.0290,-7.4750,-0.0140,0.3260,-0.0860,41273,34526,3,9
76719,5.6160,-5.9830,-7.2480,0.1070,0.2120,-0.0250,41274,34527,4,16
76739,5.4780,-6.2610,-7.2590,0.1500,0.1310,0.0420,41272,34528,4,16
76759,5.3980,-6.4300,-7.2470,0.0950,0.0990,0.0700,41269,34528,3,9
76779,5.3740,-6.5280,-6.9760,0.0200,0.0790,0.0880,41270,34529,3,9
76799,5.3150,-6.2390,-6.6140,0.0470,0.0560,0.1030,41264,34525,3,9
76819,5.3400,-6.4970,-6.6220,0.0970,0.0390,0.1430,41266,34528,3,9
76839,5.2730,-6.3470,-6.5960,0.0210,0.0090,0.1950,41260,34524,4,16
76860,5.2400,-6.0810,-6.5730,0.0500,0.0070,0.2040,41262,34522,3,9
76880,5.1640,-5.8330,-6.5460,0.1420,0.0040,0.2030,41256,34518,4,16
76900,5.2650,-5.9910,-6.4160,0.1720,-0.0110,0.1960,41256,34519,4,16
76920,5.2530,-6.0350,-6.3580,0.1260,-0.0360,0.1760,41257,34513,4,16
76940,5.2490,-6.0510,-6.3880,0.0560,-0.0380,0.1370,41256,34518,3,9
76960,5.2010,-6.0730,-6.3780,0.0230,-0.0200,0.1290,41252,34511,4,16
76980,5.2790,-6.0960,-6.0440,0.0330,-0.0040,0.1230,41251,34515,4,16
77000,5.3100,-6.0550,-5.8480,0.0950,-0.0040,0.1140,41253,34515,3,9
77020,5.2880,-6.2640,-5.9060,0.0820,-0.0080,0.1030,41251,34513,3,9
77041,5.4350,-6.3350,-5.8300,-0.0140,-0.0080,0.0990,41249,34511,4,16
77061,5.6280,-6.4430,-5.3140,-0.0850,-0.0500,0.0660,41244,34508,2,4
77081,5.3290,-6.4020,-5.4760,-0.1260,-0.0470,0.0480,41247,34506,3,9
77101,5.1390,-6.1170,-5.6840,-0.1760,0.0100,0.0600,41238,34505,3,9
77121,4.9340,-6.0150,-5.5890,-0.0660,0.0460,-0.0120,41226,34503,3,9
77141,4.6840,-6.1320,-5.5410,0.0960,0.0480,-0.0620,41217,34496,3,9
77161,4.5590,-6.3520,-5.1420,0.1550,0.0180,-0.0620,41212,34490,4,16
77181,4.4210,-6.7340,-4.9540,0.1350,0.0080,-0.0910,41209,34494,4,16
77201,4.1240,-6.7180,-5.5390,-0.0110,0.0560,-0.0870,41200,34492,4,16
77221,4.2090,-6.3850,-5.6910,-0.1600,0.1670,-0.0740,41210,34496,4,16
77242,4.4600,-6.3710,-5.9230,-0.1320,0.1870,-0.1090,41213,34494,3,9
77262,4.6970,-6.4830,-6.1910,-0.1250,0.1510,-0.1280,41217,34494,3,9
77282,4.7490,-6.6150,-6.2600,-0.0960,0.0750,-0.1400,41221,34492,4,16
77302,4.6400,-6.7950,-6.0120,-0.0670,-0.0270,-0.1410,41225,34491,3,9
77322,4.5420,-6.8280,-6.0480,-0.0210,-0.0840,-0.1600,41227,34492,4,16
77342,4.2350,-6.3480,-5.8540,0.0920,-0.1160,-0.1220,41231,34500,3,9
77362,4.2410,-6.3000,-5.6470,0.2380,-0.1340,-0.1590,41238,34499,4,16
77382,4.2590,-6.1360,-5.8000,0.2950,-0.1350,-0.2130,41242,34500,4,16
77402,4.4960,-5.8170,-6.2670,0.3660,-0.0980,-0.3450,41243,34505,4,16
77423,4.6500,-5.8020,-6.5700,0.3980,-0.1030,-0.4310,41242,34500,4,16
77443,4.7850,-5.9360,-6.3630,0.4670,-0.1440,-0.5060,41245,34500,3,9
77463,4.9570,-5.8170,-6.1290,0.6940,-0.1890,-0.6090,41241,34500,3,9
77483,5.3150,-5.8490,-6.0910,1.0740,-0.1990,-0.6770,41242,34502,3,9
77503,5.5980,-6.7210,-6.0550,1.1780,-0.1930,-0.6450,41247,34507,3,9
77523,5.9990,-7.2090,-5.9640,0.9310,-0.1790,-0.6060,41253,34509,3,9
77543,6.1270,-7.0400,-5.9990,0.6940,-0.1230,-0.6330,41252,34506,3,9
77563,6.3470,-6.4190,-5.8850,0.6260,-0.0680,-0.6700,41249,34506,4,16
77583,6.5350,-5.7110,-5.4360,0.8490,-0.0310,-0.6900,41243,34504,4,16
77603,6.8500,-6.8490,-5.6530,1.0210,-0.0750,-0.6150,41227,34503,4,16
77624,6.9360,-7.5150,-5.7900,0.6180,-0.1400,-0.5360,41232,34503,3,9
77644,6.5630,-7.0270,-5.5450,0.2200,-0.2010,-0.4800,41230,34498,4,16
77664,6.1400,-6.4630,-5.1950,0.1180,-0.2330,-0.4220,41224,34503,4,16
77684,5.8380,-5.9320,-5.0430,0.3120,-0.1980,-0.4150,41223,34498,4,16
77704,5.8970,-6.3830,-5.3000,0.4780,-0.1530,-0.3930,41225,34508,4,16
77724,6.2020,-7.0210,-5.3770,0.2950,-0.1610,-0.3500,41229,34510,4,16
77744,6.3770,-6.7290,-5.0850,0.0280,-0.2010,-0.3070,41231,34508,4,16
77764,6.3830,-6.4970,-5.4140,0.0180,-0.1860,-0.2950,41239,34509,4,16
77784,6.5830,-6.0020,-5.4110,0.1160,-0.1520,-0.2190,41235,34512,4,16
77804,6.7770,-5.5350,-5.4530,0.5530,-0.1020,-0.2640,41238,34511,3,9
77825,6.7970,-5.8320,-5.3710,0.8650,-0.0820,-0.3050,41234,34509,3,9
77845,6.8620,-6.3840,-5.1460,0.8590,-0.1010,-0.2860,41239,34515,3,9
77865,6.7400,-6.3790,-4.7240,0.6990,-0.1130,-0.2610,41245,34510,4,16
77885,6.5180,-6.0300,-4.5110,0.6980,-0.0850,-0.2960,41250,34517,4,16
77905,6.3940,-5.9020,-4.5350,0.7870,-0.0190,-0.3130,41260,34522,3,9
77925,6.5010,-6.4810,-4.3990,0.7300,0.0290,-0.2640,41261,34528,3,9
77945,6.6690,-7.0590,-4.3110,0.4890,0.0360,-0.2640,41276,34533,5,25
77965,6.6120,-7.0990,-4.4320,0.0880,0.0020,-0.2240,41282,34538,3,9
77985,6.4500,-6.2360,-4.4820,-0.1360,0.0110,-0.1640,41296,34544,4,16
78006,6.3720,-5.9830,-4.4620,0.0570,0.0430,-0.1720,41299,34544,4,16
78026,6.5000,-6.4750,-4.5050,0.1300,0.0400,-0.1670,41302,34546,4,16
78046,6.4790,-6.9160,-4.5540,0.0060,0.0010,-0.1370,41306,34545,4,16
78066,6.4180,-6.9220,-4.5240,-0.1810,-0.0260,-0.1200,41301,34548,3,9
78086,6.2680,-6.6710,-4.7480,-0.2960,-0.0050,-0.0750,41297,34538,3,9
78106,6.3490,-6.5920,-4.8570,-0.3220,0.0430,-0.0490,41289,34534,3,9
78126,6.4860,-6.3350,-4.8100,-0.2310,0.0600,-0.0780,41279,34529,4,16
78146,6.5220,-6.4790,-4.9110,-0.1020,0.0330,-0.1050,41269,34524,4,16
78166,6.4420,-6.7710,-5.0040,-0.0800,0.0050,-0.1040,41268,34521,3,9
78186,6.3730,-6.8260,-4.6910,-0.2220,-0.0060,-0.0410,41259,34519,4,16
78207,6.3360,-6.5610,-4.4540,-0.2210,0.0270,0.0020,41262,34518,3,9
78227,6.4040,-6.4800,-4.2340,-0.1540,0.0680,-0.0110,41258,34517,5,25
78247,6.3840,-6.5770,-4.3850,-0.1300,0.0900,-0.0210,41257,34516,3,9
78267,6.3450,-6.6080,-4.4690,-0.1570,0.1070,0.0150,41251,34512,4,16
78287,6.3830,-6.5530,-4.4820,-0.1610,0.1200,0.0310,41251,34516,3,9
78307,6.3960,-6.4970,-4.4090,-0.1280,0.1350,0.0540,41248,34513,3,9
78327,6.4430,-6.5030,-4.2600,-0.1130,0.1420,0.0880,41240,34510,3,9
78347,6.5710,-6.5290,-4.0680,-0.1150,0.1520,0.0890,41241,34508,3,9
78367,6.6320,-6.7190,-4.0440,-0.1610,0.1890,0.0930,41243,34505,3,9
78387,6.8580,-7.2220,-4.0590,-0.3410,0.2860,0.1190,41237,34509,3,9
78408,7.0550,-7.0920,-3.9900,-0.4410,0.3090,0.1690,41234,34509,3,9
78428,7.2900,-6.8530,-4.0170,-0.4190,0.3050,0.2410,41235,34506,3,9
78448,7.2750,-6.5430,-3.6320,-0.2830,0.2560,0.2570,41232,34502,3,9
78468,6.8270,-6.3450,-3.2390,-0.1040,0.2330,0.2450,41225,34498,4,16
78488,6.4060,-6.4430,-3.0430,0.0260,0.2860,0.2310,41225,34495,4,16
78508,6.3000,-6.7520,-2.9640,0.0430,0.3740,0.2120,41218,34499,3,9
78528,6.4780,-6.7470,-2.7590,-0.0450,0.4280,0.2690,41222,34496,4,16
78548,7.1600,-6.5920,-2.4360,-0.1200,0.4490,0.3710,41215,34490,3,9
78568,7.6430,-6.0670,-2.1200,-0.0890,0.4560,0.4220,41211,34488,3,9
78589,7.9090,-6.0000,-2.0360,0.0420,0.5310,0.3150,41200,34483,4,16
78609,8.0960,-5.8930,-2.0660,0.1360,0.6160,0.2760,41192,34483,3,9
78629,8.2520,-6.1100,-2.3080,0.1530,0.6810,0.2600,41188,34480,3,9
78649,8.3790,-6.0740,-2.4210,0.1330,0.7030,0.2820,41182,34478,3,9
78669,8.6040,-5.9740,-2.4170,0.1340,0.6820,0.3590,41181,34480,3,9
78689,8.8170,-5.7450,-2.4310,0.1570,0.6200,0.4140,41174,34476,2,4
78709,9.0000,-5.5110,-3.0100,0.2010,0.5540,0.4370,41177,34472,4,16
78729,9.1060,-5.3890,-3.7520,0.2440,0.4470,0.3890,41173,34473,3,9
78749,8.8960,-4.8020,-3.7460,0.4420,0.2810,0.2720,41173,34472,3,9
78769,8.4910,-4.9320,-2.6650,1.1060,0.0740,0.0690,41168,34466,4,16
78790,7.9920,-5.9030,-2.5520,1.3270,0.0500,-0.0480,41167,34462,4,16
78810,7.5030,-6.4930,-2.5870,1.1490,0.1190,-0.1210,41169,34462,4,16
78830,7.0250,-6.5190,-2.7090,0.8050,0.2600,-0.1980,41175,34463,4,16
78850,6.4480,-6.4210,-2.6480,0.4550,0.4250,-0.3690,41175,34466,3,9
78870,6.0820,-6.0530,-1.9500,0.2990,0.5860,-0.5920,41179,34463,4,16
78890,5.5810,-5.6010,-1.6120,0.3850,0.7470,-0.7830,41177,34469,4,16
78910,5.4850,-5.6650,-1.6590,0.4850,0.9250,-0.9420,41182,34474,4,16
78930,5.3190,-5.7280,-1.4380,0.4750,1.0940,-1.1280,41194,34477,4,16
78950,5.4240,-5.7370,-1.1560,0.3930,1.2600,-1.2900,41207,34478,4,16
78970,6.5530,-6.7160,-1.9840,0.0260,1.4620,-1.4340,41223,34492,4,16
78992,7.0890,-6.9790,-2.5020,-0.3730,1.5180,-1.5060,41232,34492,4,16
79012,7.5370,-6.5280,-2.2250,-0.5350,1.4800,-1.5280,41235,34495,4,16
79032,7.8850,-6.1060,-1.7360,-0.3820,1.4020,-1.5150,41227,34485,4,16
79052,8.3130,-6.0240,-1.6330,-0.0920,1.3030,-1.5220,41221,34484,3,9
79072,8.5700,-5.9880,-1.7320,0.1250,1.2050,-1.5360,41213,34481,3,9
79092,8.8590,-6.3090,-1.9500,0.1770,1.0850,-1.5270,41202,34485,3,9
79112,9.1650,-7.0900,-2.2030,0.0380,0.9110,-1.4660,41206,34484,3,9
79132,9.4810,-6.8910,-1.7070,-0.0370,0.5630,-1.3170,41193,34480,4,16
79153,9.4310,-6.5450,-1.4650,0.2070,0.3100,-1.1030,41193,34473,3,9
79173,9.4400,-7.1670,-1.4580,0.4930,0.0430,-0.8350,41184,34472,4,16
79193,9.3760,-7.7180,-1.5350,0.4890,-0.2110,-0.5440,41189,34475,3,9
79213,9.2780,-7.6700,-1.3050,0.2980,-0.4720,-0.2910,41185,34472,3,9
