timestamp_ms,ax,ay,az,gx,gy,gz,ir,red,emg_filtered,emg_envelope
26772,-0.6690,-9.6570,0.5540,-0.1850,-0.3740,0.1190,30368,32164,4,16
26792,-0.6250,-9.8020,0.4450,-0.3660,-0.3920,0.1180,30361,32157,3,9
26812,-0.5990,-10.0290,0.5270,-0.5240,-0.4150,0.1580,30360,32154,4,16
26832,-0.7670,-10.0440,0.5450,-0.4700,-0.4140,0.1820,30350,32150,5,25
26852,-1.0460,-10.4140,0.2360,-0.4780,-0.4280,0.1680,30346,32158,4,16
26872,-0.6110,-11.6610,-0.3160,-0.6100,-0.4240,0.0330,30356,32159,3,9
26893,-0.2690,-12.0020,-0.7280,-0.7030,-0.4360,-0.0080,30353,32151,3,9
26913,-0.0750,-11.7180,-1.0320,-0.6930,-0.4680,-0.0090,30341,32139,4,16
26933,0.0530,-11.4560,-1.2410,-0.5980,-0.5210,0.0150,30320,32126,4,16
26953,0.0510,-11.2220,-1.5950,-0.5190,-0.5790,0.0060,30320,32120,4,16
26973,0.1330,-10.7580,-1.6300,-0.4000,-0.6340,-0.0330,30316,32112,2,4
26993,0.2840,-10.1550,-1.7250,-0.2750,-0.7040,-0.0160,30308,32112,5,25
27013,0.1830,-9.4750,-1.9140,-0.2200,-0.7860,0.0230,30310,32114,3,9
27033,-0.0250,-9.0540,-2.1000,-0.2210,-0.8660,0.0610,30307,32111,3,9
27053,-0.3160,-8.7480,-2.1280,-0.1430,-0.9230,0.0490,30308,32109,4,16
27074,-0.3790,-8.8910,-2.0600,-0.0510,-0.9130,0.0190,30315,32118,3,9
27094,-0.3840,-9.2080,-2.1000,-0.0160,-0.8710,0.0130,30327,32132,0,0
27114,-0.3850,-9.5800,-2.3700,-0.0630,-0.8050,0.0190,30351,32153,3,9
27134,-0.3420,-9.5360,-2.3980,-0.0780,-0.7200,0.0150,30370,32172,1,1
27154,-0.3150,-9.3670,-2.1980,-0.0580,-0.6230,0.0270,30397,32190,4,16
27174,-0.3880,-9.0940,-2.0710,-0.0950,-0.5490,0.0410,30420,32203,1,1
27194,-0.5120,-8.8800,-1.9310,-0.1680,-0.5070,0.0420,30442,32218,6,36
27214,-0.7020,-8.6010,-1.8410,-0.2030,-0.4830,0.0200,30461,32236,3,9
27234,-0.8970,-8.5480,-1.8410,-0.2250,-0.4840,-0.0080,30481,32253,4,16
27254,-1.0930,-8.7080,-1.6760,-0.2050,-0.4920,-0.0510,30496,32261,4,16
27275,-1.1670,-8.8430,-1.4930,-0.1640,-0.4830,-0.0920,30507,32270,2,4
27295,-1.2280,-8.9100,-1.2230,-0.1560,-0.4770,-0.1190,30513,32279,4,16
27315,-1.3590,-9.0200,-1.0880,-0.1500,-0.4780,-0.1200,30520,32281,4,16
27335,-1.4320,-9.0610,-1.0270,-0.0920,-0.4800,-0.1250,30515,32277,5,25
27355,-1.4770,-9.0420,-1.1370,-0.0300,-0.4840,-0.1330,30516,32281,4,16
27375,-1.4820,-9.1090,-1.0580,0.0080,-0.4880,-0.1440,30512,32277,4,16
27395,-1.4250,-9.2780,-0.9730,0.0720,-0.4790,-0.1610,30507,32279,3,9
27415,-1.3430,-9.4440,-0.9950,0.1610,-0.4500,-0.1770,30505,32274,4,16
27435,-1.2270,-9.6930,-1.1360,0.2480,-0.4080,-0.1860,30498,32276,3,9
27455,-0.9560,-10.1620,-1.3590,0.3170,-0.3340,-0.2050,30499,32276,4,16
27476,-0.8060,-10.5500,-1.5620,0.3050,-0.2800,-0.2280,30498,32272,4,16
27496,-0.5160,-10.9520,-1.7120,0.3020,-0.2230,-0.2680,30492,32266,4,16
27516,-0.3560,-11.3950,-1.6420,0.2950,-0.1570,-0.2740,30488,32264,3,9
27536,0.0430,-12.2330,-1.6040,0.1990,-0.0650,-0.3110,30490,32264,3,9
27556,0.3730,-12.6310,-1.6200,0.0060,0.0410,-0.3580,30488,32262,3,9
27576,0.6980,-12.6340,-1.5470,-0.2480,0.1150,-0.3610,30482,32265,3,9
27596,0.9330,-12.0110,-1.5040,-0.3840,0.1680,-0.3390,30477,32254,2,4
27616,0.9540,-11.1190,-1.1960,-0.4600,0.1690,-0.2620,30466,32252,3,9
27636,0.9210,-9.9860,-0.8140,-0.4460,0.1160,-0.1780,30461,32243,3,9
27656,0.7970,-8.4000,-0.3220,-0.3500,-0.0380,-0.0480,30441,32227,2,4
27677,0.7520,-8.4840,-0.0670,-0.3950,-0.1300,0.0440,30434,32213,4,16
27697,0.7780,-8.4990,-0.1640,-0.3900,-0.1970,0.0800,30418,32193,4,16
27717,1.0080,-8.9120,-0.3830,-0.3920,-0.1920,0.1760,30392,32169,2,4
27737,1.0190,-9.2540,-0.5490,-0.3890,-0.0950,0.2450,30370,32154,6,36
27757,1.0350,-9.2860,-0.7980,-0.3490,0.0410,0.2650,30367,32146,2,4
27777,0.9940,-9.1700,-1.2330,-0.2540,0.1650,0.2810,30361,32142,5,25
27797,0.7230,-8.7540,-1.4350,-0.2040,0.2190,0.2850,30352,32136,1,1
27817,0.4200,-8.4160,-1.3080,-0.2040,0.2000,0.2570,30352,32136,3,9
27837,0.0110,-8.2170,-1.1700,-0.4080,0.0560,0.1800,30367,32141,4,16
27859,-0.1960,-8.4180,-0.9960,-0.5430,-0.0440,0.1400,30375,32145,6,36
27879,-0.3730,-8.5370,-0.9860,-0.5300,-0.1210,0.0950,30373,32144,2,4
27899,-0.4110,-8.7410,-1.1720,-0.4230,-0.1910,0.0560,30387,32150,4,16
27919,-0.4840,-8.7080,-1.1850,-0.2530,-0.2520,0.0490,30402,32151,4,16
27939,-0.4690,-8.9770,-1.2010,-0.1760,-0.2970,0.0640,30405,32155,6,36
27959,-0.5350,-9.2360,-1.0460,-0.1270,-0.3220,0.0810,30415,32156,5,25
27979,-0.6090,-9.1810,-0.9590,-0.1000,-0.3340,0.0920,30432,32170,4,16
27999,-0.6490,-8.9810,-0.8890,-0.1600,-0.3460,0.1060,30447,32182,4,16
28019,-0.8040,-9.0880,-0.7540,-0.2180,-0.3440,0.1480,30461,32190,4,16
28040,-0.9310,-9.2450,-0.8820,-0.2430,-0.3480,0.1660,30467,32193,5,25
28060,-1.0400,-9.3190,-1.0070,-0.2640,-0.3640,0.1770,30471,32197,3,9
28080,-1.1250,-9.5900,-1.1710,-0.3260,-0.3730,0.1820,30472,32203,4,16
28100,-1.2210,-9.4500,-1.5670,-0.3420,-0.4090,0.1740,30476,32199,3,9
28120,-1.0330,-9.8500,-1.8700,-0.2800,-0.4380,0.1820,30470,32203,5,25
28140,-0.9620,-10.2620,-2.2420,-0.1630,-0.4530,0.1510,30469,32193,5,25
28160,-0.7520,-11.8320,-2.6590,-0.1820,-0.4270,0.0640,30469,32198,5,25
28180,-0.0680,-13.4770,-2.7960,-0.2570,-0.3250,-0.0690,30473,32203,1,1
28200,0.1800,-13.4550,-2.5040,-0.4100,-0.2180,-0.1160,30475,32217,4,16
28220,-0.0170,-12.2810,-2.6580,-0.5430,-0.2030,-0.0510,30493,32240,4,16
28241,-0.3780,-11.2850,-2.7690,-0.5280,-0.2700,-0.0190,30500,32247,5,25
28261,-0.5610,-10.2500,-2.7900,-0.4480,-0.3870,-0.0030,30513,32260,5,25
28281,-0.7890,-9.0300,-2.8000,-0.3890,-0.5570,0.0190,30522,32267,5,25
28301,-1.0300,-8.4730,-3.0120,-0.2560,-0.7640,-0.0150,30536,32272,3,9
28321,-1.0120,-8.6130,-3.3260,-0.1210,-0.9330,-0.0900,30547,32272,4,16
28341,-0.8790,-8.8670,-3.3930,0.1250,-1.0420,-0.1520,30543,32271,1,1
28361,-0.5850,-9.1840,-3.3840,0.3830,-1.0620,-0.1850,30543,32264,4,16
28381,-0.3160,-9.3720,-3.3780,0.5270,-1.0300,-0.1880,30534,32250,1,1
28401,-0.1360,-9.4260,-3.3630,0.5270,-0.9780,-0.1720,30525,32240,6,36
28421,-0.2390,-9.1090,-3.0150,0.3550,-0.9130,-0.1000,30511,32220,0,0
28442,-0.4130,-8.4980,-2.8070,0.2900,-0.8500,-0.0680,30498,32207,3,9
28462,-0.6630,-7.9800,-2.4730,0.2710,-0.7930,-0.0270,30485,32188,5,25
28482,-0.8330,-7.9120,-2.0480,0.2620,-0.7290,0.0080,30477,32172,5,25
28502,-1.0880,-7.9030,-1.7550,0.1490,-0.6570,0.0020,30472,32162,5,25
28522,-1.3400,-8.1490,-1.2380,-0.0220,-0.5460,-0.0230,30474,32155,3,9
28542,-1.2510,-7.9340,-1.5200,0.0410,-0.4590,-0.0900,30470,32148,3,9
28562,-1.4070,-7.9030,-1.4150,0.0460,-0.3820,-0.1350,30476,32144,3,9
28582,-1.2070,-8.3250,-1.0710,0.0600,-0.3260,-0.1430,30475,32135,2,4
28602,-1.2280,-8.6900,-1.1320,0.0010,-0.2780,-0.1190,30472,32134,3,9
28622,-1.4840,-8.7500,-1.2040,-0.0810,-0.2090,-0.1220,30477,32129,3,9
28643,-1.6530,-8.8320,-1.2250,-0.0610,-0.1840,-0.1100,30475,32129,3,9
28663,-1.7660,-9.0880,-1.3350,-0.0250,-0.1470,-0.1240,30473,32126,3,9
28683,-1.6650,-9.5580,-1.4070,0.0480,-0.1050,-0.1490,30461,32115,3,9
28703,-1.3550,-9.9800,-1.5660,0.1070,-0.0600,-0.1860,30459,32112,2,4
28723,-1.0830,-10.6280,-1.7420,0.0760,-0.0170,-0.2050,30449,32102,3,9
28743,-1.1670,-10.9730,-2.2820,-0.0290,0.0260,-0.2600,30436,32094,4,16
28763,-1.0240,-11.5290,-2.4480,-0.1420,0.0770,-0.3510,30418,32079,3,9
28783,-0.1300,-12.9260,-2.5450,-0.1480,0.1530,-0.4390,30409,32073,4,16
28803,0.9430,-13.3740,-2.2920,-0.1730,0.2540,-0.3820,30399,32065,3,9
28824,1.2250,-12.6450,-1.9640,-0.2210,0.2950,-0.2960,30392,32061,3,9
28844,1.2380,-11.5210,-1.5100,-0.3220,0.2870,-0.1830,30386,32058,4,16
28864,1.1160,-10.2780,-1.0130,-0.3340,0.2650,-0.0740,30374,32051,3,9
28884,1.0490,-9.7110,-0.9940,-0.3270,0.2590,0.0490,30374,32058,3,9
28904,0.9250,-9.3220,-1.2790,-0.1650,0.2680,0.1140,30384,32066,4,16
28924,1.0760,-9.2330,-1.3260,0.0400,0.2830,0.1790,30388,32069,4,16
28944,1.1530,-9.3360,-1.5290,0.1070,0.3360,0.2380,30388,32067,5,25
28964,1.0850,-9.1700,-1.7300,0.1000,0.4040,0.2640,30376,32058,4,16
28984,0.9580,-8.7050,-1.9180,0.0720,0.4710,0.2830,30369,32052,3,9
29004,0.6310,-8.1520,-1.6210,-0.0150,0.4810,0.3160,30353,32036,2,4
29025,0.1960,-7.9890,-1.3970,-0.1310,0.4500,0.3180,30353,32033,3,9
29045,-0.2970,-7.6350,-1.0830,-0.2460,0.3960,0.3010,30351,32028,4,16
29065,-0.7690,-7.5190,-0.4880,-0.3520,0.3790,0.3040,30343,32022,3,9
29085,-1.0760,-7.5800,-0.7550,-0.3090,0.3940,0.2400,30336,32019,3,9
29105,-1.4140,-7.2150,-1.0990,-0.2690,0.4180,0.1320,30340,32019,4,16
29125,-1.4460,-7.4380,-1.6040,-0.2450,0.3510,0.0680,30342,32021,3,9
29145,-1.2040,-8.1320,-1.5450,-0.2920,0.2150,0.0920,30340,32025,3,9
29165,-1.1420,-9.2540,-1.5190,-0.4390,0.1420,0.1510,30354,32040,5,25
29185,-0.8790,-9.6190,-1.1500,-0.7840,0.1240,0.2300,30385,32066,3,9
29205,-0.6730,-8.9150,-0.4440,-0.7220,0.1020,0.2130,30409,32085,3,9
29226,-0.7390,-8.6360,-0.8540,-0.5440,0.0700,0.1760,30416,32089,3,9
29246,-0.9950,-9.1840,-1.2350,-0.6480,-0.0140,0.1530,30427,32103,4,16
29266,-0.8800,-9.2560,-1.4890,-0.6970,-0.0770,0.0910,30440,32116,4,16
29286,-0.5410,-10.0150,-1.5480,-0.5740,-0.0990,0.0860,30450,32128,4,16
29306,-0.2260,-10.7620,-1.4960,-0.3370,-0.0230,0.0960,30465,32136,3,9
29326,-0.3520,-11.2470,-1.9560,-0.1700,0.0920,0.1030,30471,32137,4,16
29346,-0.5320,-12.2700,-2.7520,-0.1280,0.2660,0.0330,30475,32146,4,16
29366,-0.3910,-13.0260,-3.5170,-0.1690,0.4420,-0.1080,30476,32148,4,16
29386,-0.1150,-13.1570,-3.7150,-0.3160,0.5550,-0.2210,30477,32147,2,4
29406,-0.0010,-11.7890,-3.1230,-0.4520,0.5670,-0.2660,30471,32136,5,25
29427,-0.2710,-10.3360,-2.6840,-0.3640,0.4970,-0.2490,30457,32131,0,0
29447,-0.5290,-9.2250,-2.3160,-0.1360,0.3960,-0.2340,30457,32124,0,0
29467,-0.7710,-8.5210,-2.2580,0.2150,0.2710,-0.2280,30457,32126,2,4
29487,-0.8380,-8.6780,-2.4330,0.5080,0.1500,-0.2350,30456,32122,4,16
29507,-0.7160,-9.1420,-2.7710,0.6970,0.0490,-0.2430,30457,32122,0,0
29527,-0.3840,-9.4560,-3.2010,0.7810,-0.0260,-0.2280,30456,32126,5,25
29547,-0.1090,-9.5370,-3.6340,0.7380,-0.0870,-0.2040,30462,32133,5,25
29567,0.1720,-9.4820,-3.9440,0.6170,-0.1180,-0.1750,30465,32129,5,25
29587,0.4300,-9.2060,-3.8870,0.5220,-0.1280,-0.1170,30462,32126,3,9
29607,0.5910,-8.6870,-3.5130,0.4690,-0.0660,-0.0010,30459,32129,5,25
29628,0.4980,-8.4830,-3.1950,0.3330,0.0070,0.0660,30464,32135,4,16
29648,0.2830,-8.1850,-2.9530,0.1610,0.0830,0.1020,30475,32145,4,16
29668,0.0110,-7.8160,-2.7560,0.0920,0.1540,0.1160,30485,32147,2,4
29688,-0.3040,-7.5620,-2.5860,0.1430,0.2170,0.1080,30495,32155,4,16
29708,-0.6370,-7.6090,-2.2760,0.1920,0.2910,0.0790,30503,32156,5,25
29728,-1.0430,-7.8550,-2.1200,0.0820,0.3770,0.0100,30499,32153,5,25
29748,-1.2550,-7.9570,-1.8940,-0.2320,0.4560,-0.1010,30504,32154,3,9
29768,-1.3420,-7.9300,-1.8050,-0.3830,0.5160,-0.1910,30506,32153,5,25
29788,-1.2440,-8.4710,-1.7370,-0.3150,0.6040,-0.2490,30508,32155,3,9
29809,-1.1370,-8.9590,-1.7060,-0.2080,0.6600,-0.2740,30516,32170,4,16
29829,-1.0350,-9.5360,-1.9690,-0.1400,0.6970,-0.2810,30530,32178,3,9
29849,-0.7820,-10.5150,-2.3970,-0.1120,0.7280,-0.2680,30542,32187,3,9
29869,-0.3050,-11.2000,-2.6530,-0.0990,0.7730,-0.2350,30544,32189,4,16
29889,-0.1070,-10.8960,-2.6550,-0.1360,0.8180,-0.2060,30548,32196,4,16
29909,-0.3560,-11.0900,-3.0490,-0.2260,0.7930,-0.1980,30554,32198,2,4
29929,-0.1360,-12.0570,-3.2530,-0.2600,0.7560,-0.2040,30546,32195,4,16
29949,0.3880,-13.0220,-3.4990,-0.2440,0.7600,-0.2510,30541,32191,4,16
29969,1.0150,-13.1660,-3.7180,-0.2610,0.7150,-0.3300,30533,32187,3,9
29989,2.0650,-12.3640,-3.1330,-0.2680,0.5170,-0.3100,30518,32173,4,16
30010,2.2300,-11.2500,-2.3770,-0.2380,0.3050,-0.1580,30508,32173,3,9
30030,2.0750,-10.1890,-1.4990,-0.1550,0.0930,0.0620,30511,32178,4,16
30050,1.8610,-9.5210,-1.0210,-0.0400,-0.0360,0.2650,30521,32188,4,16
30070,1.7090,-9.2740,-0.8510,0.0660,-0.0400,0.3600,30531,32196,4,16
30090,1.5060,-9.0610,-0.9180,0.1260,0.0510,0.3830,30540,32208,3,9
30110,1.2150,-9.0750,-1.5240,0.1120,0.1720,0.3780,30554,32217,3,9
30130,0.9940,-8.8660,-1.8790,0.0500,0.2730,0.3400,30555,32221,3,9
30150,0.9060,-8.6510,-1.9640,-0.0630,0.3170,0.3100,30565,32228,4,16
30170,0.7810,-8.4260,-1.6750,-0.2230,0.3190,0.2850,30567,32229,5,25
30190,0.4240,-8.0850,-1.0670,-0.4220,0.3080,0.2700,30573,32229,4,16
30211,0.1880,-7.8550,-0.8760,-0.4440,0.3230,0.2820,30571,32234,3,9
30231,0.0120,-7.8550,-1.0070,-0.3720,0.3390,0.3000,30578,32234,2,4
30251,-0.0290,-7.9830,-1.2110,-0.2590,0.3470,0.3120,30587,32247,2,4
30271,-0.0970,-8.1390,-1.3520,-0.1610,0.3580,0.3150,30596,32258,4,16
30291,-0.0360,-8.4070,-1.2990,-0.1580,0.3590,0.3290,30611,32270,4,16
30311,-0.0260,-8.5030,-1.3620,-0.2390,0.3500,0.3300,30609,32268,6,36
30331,-0.1030,-8.3730,-1.3840,-0.3020,0.3430,0.3220,30607,32263,4,16
30351,-0.1540,-8.1240,-1.3110,-0.2800,0.3300,0.3190,30604,32264,4,16
30371,-0.2630,-8.0920,-1.3460,-0.2420,0.2980,0.3250,30602,32262,3,9
30391,-0.6090,-8.4060,-1.7980,-0.2780,0.2050,0.2860,30598,32255,5,25
30412,-0.6180,-8.8740,-2.0890,-0.2490,0.1170,0.2380,30595,32254,4,16
30432,-0.5990,-9.5340,-2.3620,-0.1960,0.0480,0.1930,30575,32230,4,16
30452,-0.8770,-10.9560,-3.3460,-0.1910,0.0370,0.0560,30554,32220,4,16
30472,0.1540,-14.0290,-5.3100,-0.2990,0.0800,-0.1670,30550,32213,2,4
30492,1.0630,-14.2990,-5.7890,-0.3920,0.1600,-0.3900,30550,32209,3,9
30512,1.4920,-13.8050,-5.5770,-0.3860,0.1630,-0.4310,30532,32201,4,16
30532,1.7440,-12.9540,-5.1340,-0.4460,0.1380,-0.3900,30520,32196,4,16
30552,1.7410,-10.9440,-3.9840,-0.3970,0.0760,-0.2340,30514,32196,6,36
30572,0.8990,-9.2850,-3.2480,-0.2810,-0.0170,-0.0490,30517,32206,3,9
30592,-0.0590,-8.4380,-3.0790,-0.0510,-0.1370,0.0680,30539,32223,1,1
30613,-0.2240,-8.5760,-3.2510,0.1430,-0.1920,0.0720,30550,32230,4,16
30633,-0.2590,-8.7740,-3.4870,0.2770,-0.2180,0.0370,30563,32238,3,9
30653,-0.0220,-8.9540,-3.8680,0.3070,-0.2400,-0.0370,30568,32239,3,9
30673,0.3260,-9.0180,-3.9370,0.2330,-0.2450,-0.1010,30569,32232,3,9
30693,0.6090,-8.7770,-3.7290,0.1960,-0.2320,-0.1420,30562,32228,2,4
30713,0.8800,-8.5980,-3.7350,0.1990,-0.2010,-0.1570,30555,32232,3,9
30733,1.0530,-8.5990,-3.8150,0.1970,-0.1810,-0.1370,30558,32242,3,9
30753,1.1040,-8.5340,-3.8570,0.1130,-0.1590,-0.1310,30566,32246,4,16
30773,1.2040,-8.4430,-3.5540,-0.0210,-0.1030,-0.1260,30579,32258,3,9
30794,1.2430,-8.4490,-3.2880,-0.0580,-0.0370,-0.0960,30583,32261,2,4
30814,1.1520,-8.3410,-3.0850,-0.0490,0.0430,-0.0770,30588,32266,4,16
30834,1.0340,-8.2610,-2.9500,-0.0480,0.1220,-0.0710,30592,32266,3,9
30854,0.9110,-8.1710,-2.8590,-0.0400,0.1970,-0.0800,30590,32272,3,9
30874,0.7410,-8.0680,-2.8290,-0.0360,0.2410,-0.1020,30597,32271,3,9
30894,0.6140,-8.0680,-2.6310,-0.0190,0.2700,-0.1220,30591,32268,3,9
30914,0.4490,-8.1510,-2.5530,0.0180,0.2850,-0.1270,30589,32254,5,25
30934,0.3460,-8.6060,-2.5760,0.1070,0.3130,-0.1290,30585,32253,4,16
30954,0.4240,-9.1510,-2.6960,0.1940,0.3640,-0.1290,30584,32254,3,9
30974,0.6130,-9.8450,-3.1270,0.2000,0.4650,-0.1160,30573,32243,3,9
30995,0.5840,-10.4300,-3.7120,0.0620,0.5440,-0.1350,30571,32246,4,16
31015,0.8240,-11.4810,-4.4460,-0.1160,0.6190,-0.1870,30565,32241,4,16
31035,1.1820,-12.1070,-4.6320,-0.2620,0.6450,-0.2050,30557,32239,4,16
31055,1.7120,-12.2890,-4.3160,-0.3540,0.5900,-0.1350,30543,32240,3,9
31075,1.9360,-11.0480,-3.1690,-0.3340,0.4710,0.0020,30544,32250,3,9
31095,1.6690,-9.9440,-2.3740,-0.3120,0.2740,0.1910,30560,32263,2,4
31115,1.4430,-9.8100,-2.1520,-0.2370,0.0950,0.3170,30579,32274,3,9
31135,1.5020,-9.9850,-1.9930,-0.0150,-0.0180,0.3890,30597,32286,3,9
31155,1.6150,-10.4510,-2.0540,0.2470,-0.0110,0.4360,30608,32290,4,16
31175,1.5480,-10.3540,-2.7260,0.3180,0.1370,0.4470,30622,32308,3,9
31197,1.4340,-9.7590,-2.8140,0.1800,0.2170,0.4420,30636,32320,4,16
31217,1.1230,-9.0960,-2.5950,0.0210,0.2700,0.4440,30640,32322,4,16
31237,0.5950,-8.4380,-2.0540,-0.1000,0.3000,0.4480,30640,32320,3,9
31257,0.0910,-7.9220,-1.5480,-0.1480,0.3080,0.4430,30637,32315,3,9
31277,-0.2680,-7.6750,-1.1850,-0.1070,0.3100,0.4190,30635,32313,3,9
31297,-0.4570,-7.6910,-1.1380,-0.0400,0.3270,0.3860,30632,32310,3,9
31317,-0.5450,-7.5970,-1.2040,0.0170,0.3440,0.3430,30629,32307,3,9
31337,-0.5730,-7.3310,-1.3420,0.0540,0.3460,0.2980,30628,32301,4,16
31357,-0.6870,-7.2840,-1.5960,0.0100,0.2920,0.2640,30616,32291,5,25
31378,-0.6670,-7.3890,-1.5410,-0.0350,0.2470,0.2320,30605,32277,3,9
31398,-0.6880,-7.3680,-1.5010,-0.0300,0.2000,0.2130,30595,32268,3,9
31418,-0.7780,-7.1470,-1.3900,0.0130,0.1480,0.2000,30591,32262,3,9
31438,-0.8560,-7.2890,-1.4700,0.0160,0.0760,0.2110,30586,32257,4,16
31458,-0.9180,-7.4990,-1.4990,-0.0440,0.0080,0.2120,30587,32258,3,9
31478,-1.0320,-7.5540,-1.6820,-0.0580,-0.0550,0.1950,30575,32249,3,9
31498,-1.0100,-7.7980,-1.8610,-0.0800,-0.1070,0.1970,30570,32237,4,16
31518,-0.8540,-8.1370,-2.0490,-0.0710,-0.1450,0.2410,30560,32234,4,16
31538,-0.7110,-8.6740,-2.2420,-0.0100,-0.1080,0.3370,30571,32248,3,9
31559,-0.4870,-8.7930,-2.4190,-0.0260,-0.0380,0.3790,30578,32258,5,25
31579,-0.4150,-8.9750,-2.4550,-0.1830,0.0100,0.4270,30584,32261,3,9
31599,-0.2630,-8.9710,-2.3250,-0.3600,0.0910,0.4510,30588,32263,3,9
31619,-0.2810,-7.9710,-2.1820,-0.4300,0.1310,0.4330,30587,32259,4,16
31639,-0.7410,-7.5350,-2.1060,-0.3160,0.0900,0.4470,30571,32246,4,16
31659,-1.1160,-8.4720,-2.2040,-0.1740,0.0590,0.3930,30554,32232,4,16
31679,-1.0740,-9.8680,-2.6380,-0.1400,0.0840,0.2290,30555,32223,3,9
31699,-0.6730,-11.1610,-3.0780,-0.1490,0.1610,0.0300,30561,32223,3,9
31719,0.0180,-11.7650,-3.8300,-0.1620,0.2420,-0.1890,30562,32216,4,16
31739,0.4110,-11.5570,-4.5740,-0.1440,0.2580,-0.3430,30523,32185,4,16
31760,0.0470,-11.4250,-4.6590,-0.1690,0.2380,-0.4010,30509,32179,4,16
31780,-0.1400,-12.1330,-5.0970,-0.3880,0.2430,-0.4880,30502,32178,3,9
31800,0.3300,-13.2110,-5.5030,-0.6170,0.2810,-0.5420,30511,32183,3,9
31820,0.5720,-13.4220,-5.7870,-0.7180,0.3520,-0.5690,30510,32182,3,9
31840,0.3720,-12.9970,-5.7860,-0.7900,0.4420,-0.5070,30503,32175,3,9
31860,0.1560,-12.0850,-5.5620,-0.9940,0.5270,-0.4210,30490,32162,3,9
31880,-0.1320,-11.5830,-5.6100,-1.3120,0.6070,-0.3240,30470,32145,4,16
31900,-0.3120,-10.9030,-5.3860,-1.5940,0.6870,-0.2410,30443,32127,5,25
31920,-0.3090,-10.0690,-5.1610,-1.8290,0.7290,-0.1680,30432,32135,4,16
31940,-0.6560,-8.5520,-4.0920,-1.9660,0.7980,-0.0500,30444,32141,4,16
31961,-1.0760,-7.9390,-3.9500,-1.7160,0.8050,0.0500,30432,32143,5,25
31981,-1.3020,-7.4710,-3.6160,-1.4660,0.8080,0.1470,30448,32166,3,9
32001,-1.2710,-6.8390,-3.2800,-1.1920,0.7630,0.2300,30477,32195,4,16
32021,-1.2890,-6.1480,-3.4010,-0.9060,0.6650,0.2900,30514,32226,4,16
32041,-1.0790,-5.6340,-3.6010,-0.5690,0.5620,0.4320,30565,32284,4,16
32061,-0.9210,-5.5200,-2.9880,-0.2170,0.4460,0.5200,30642,32347,4,16
32081,-0.6810,-5.2840,-3.0600,0.0900,0.3800,0.5240,30721,32415,4,16
32101,-0.8330,-4.4740,-3.2310,0.4980,0.3640,0.5120,30798,32480,4,16
32121,-0.3350,-5.0580,-3.7470,0.5830,0.3490,0.4970,30896,32573,4,16
32141,-0.0780,-5.5960,-4.4380,0.4890,0.3050,0.5790,31097,32712,3,9
32162,0.2450,-6.1100,-4.4630,0.5810,0.3520,0.6720,31226,32795,5,25
32182,0.1480,-6.2550,-4.6780,0.6350,0.4210,0.7670,31354,32883,3,9
32202,0.1420,-6.1670,-4.6380,0.8000,0.4830,0.8180,31467,32951,4,16
32222,0.1170,-6.4510,-5.1760,0.9220,0.5890,0.7440,31552,33000,3,9
32242,0.0160,-7.2420,-6.0480,0.7700,0.7130,0.6290,31618,33036,3,9
32262,0.1240,-8.2650,-6.9800,0.5330,0.7820,0.4510,31657,33052,5,25
32282,0.3510,-9.4190,-7.6260,0.4240,0.8650,0.1930,31666,33046,4,16
32302,0.9350,-10.6490,-7.7670,0.3350,0.8910,-0.1080,31654,33024,5,25
32322,1.3950,-11.2590,-6.9110,0.1850,0.8500,-0.4000,31617,32982,5,25
32342,1.2560,-11.4180,-5.7830,-0.0060,0.6760,-0.7840,31526,32900,4,16
32363,1.0190,-11.3250,-5.2270,-0.1300,0.5280,-1.0680,31453,32836,2,4
32383,0.7370,-11.3720,-4.6290,-0.1120,0.3480,-1.2970,31386,32781,4,16
32403,0.4510,-10.8970,-3.6340,0.1070,0.2240,-1.4700,31313,32720,3,9
32423,0.2800,-10.1610,-2.6220,0.4200,0.1570,-1.5490,31247,32657,3,9
32443,0.1680,-10.3180,-2.6280,0.5660,0.1010,-1.5320,31177,32607,2,4
32463,-0.2490,-10.4480,-2.1330,0.3380,0.0990,-1.5180,31126,32554,4,16
32483,-0.7810,-8.9670,-2.0670,0.3770,0.0770,-1.5250,31063,32501,2,4
32503,-0.8260,-8.7330,-2.1950,0.6320,0.0280,-1.4650,31008,32455,4,16
32523,-0.0680,-9.7550,-2.2960,0.7470,-0.0350,-1.2790,30961,32417,4,16
32544,0.0340,-9.0510,-2.2300,0.6470,-0.0800,-1.1280,30941,32396,4,16
32564,-0.1390,-9.1640,-2.1490,0.6900,-0.1620,-0.9100,30924,32379,3,9
32584,0.0060,-8.9080,-2.2890,0.9310,-0.2610,-0.7290,30917,32367,4,16
32604,0.0130,-9.5820,-2.9560,0.8060,-0.3590,-0.4950,30916,32373,4,16
32624,-0.2410,-9.5560,-2.4210,0.4740,-0.4670,-0.3250,30927,32373,4,16
32644,-0.3850,-9.6610,-2.2590,0.2890,-0.5800,-0.1520,30933,32375,7,49
32664,-0.2390,-9.9630,-2.5010,0.1150,-0.6660,0.0150,30939,32375,4,16
32684,-0.2510,-10.2270,-3.1880,0.0850,-0.7710,0.1690,30952,32369,4,16
32704,0.0300,-10.9860,-3.5900,0.1410,-0.8500,0.3470,30954,32362,3,9
32724,0.3330,-11.6960,-3.3210,-0.0310,-0.8550,0.5120,30959,32357,3,9
32745,0.6880,-12.3600,-3.6390,-0.2030,-0.8060,0.5560,30957,32358,5,25
32765,1.3830,-12.8280,-3.9000,-0.2810,-0.7210,0.5570,30946,32360,3,9
32785,1.5110,-12.5030,-4.3510,-0.2340,-0.6570,0.5680,30928,32361,3,9
32805,1.4530,-12.2480,-4.8270,-0.1950,-0.6560,0.5750,30912,32351,3,9
32825,1.8140,-12.7200,-5.3590,-0.1570,-0.6190,0.5350,30891,32342,4,16
32845,2.1500,-13.3630,-5.9090,-0.1140,-0.5080,0.4090,30878,32319,4,16
32865,2.7330,-13.5450,-5.9120,-0.0170,-0.3070,0.2720,30857,32299,2,4
32885,3.2290,-12.9780,-5.5990,0.0040,-0.0860,0.2160,30834,32280,4,16
32905,3.5360,-12.3940,-5.3250,-0.0350,0.0760,0.2100,30811,32268,3,9
32925,3.0020,-11.7820,-3.3930,-0.0330,0.3950,0.3850,30787,32254,3,9
32946,2.5670,-10.8490,-2.6980,-0.0010,0.6030,0.5490,30779,32256,4,16
32966,2.2010,-9.9960,-2.2100,-0.0950,0.7120,0.7840,30773,32256,4,16
32986,2.1620,-9.3720,-0.9100,-0.2850,0.6930,1.0380,30767,32250,4,16
33006,1.9580,-9.0270,0.4020,-0.2960,0.6370,1.2270,30756,32243,5,25
33026,1.9150,-8.6900,1.2550,-0.1200,0.6010,1.3460,30745,32239,2,4
33046,1.7290,-8.0460,1.2840,0.1610,0.5430,1.4470,30738,32225,3,9
33066,1.6080,-7.2300,1.1530,0.4390,0.4790,1.5380,30728,32220,3,9
33086,1.5730,-6.9340,0.8980,0.6700,0.4300,1.6640,30721,32218,3,9
33106,1.8230,-7.2660,0.0440,0.6760,0.4340,1.7610,30716,32214,6,36
33126,2.8000,-7.5390,-0.4610,0.3740,0.4990,1.8320,30705,32205,4,16
33147,3.3810,-7.5900,-1.1700,0.1640,0.5430,1.7550,30694,32193,3,9
33167,3.9770,-7.3800,-2.0810,0.0820,0.5430,1.5280,30679,32189,4,16
33187,4.2600,-8.0240,-2.8750,0.2030,0.5660,1.1150,30667,32182,3,9
33207,4.3490,-8.7760,-3.5180,0.3410,0.6830,0.5330,30661,32185,4,16
33227,3.6700,-9.0790,-4.1230,0.3300,0.8430,-0.1330,30655,32179,3,9
33247,2.9140,-9.3700,-3.9470,0.2600,0.9720,-0.6620,30646,32176,2,4
33267,2.1940,-9.2070,-4.0380,0.2890,1.0820,-1.1070,30643,32173,3,9
33287,1.7390,-10.0260,-4.4510,0.2870,1.2160,-1.4250,30639,32172,3,9
33307,1.7510,-10.8940,-5.6290,0.3100,1.3420,-1.6820,30631,32166,3,9
33327,2.1120,-11.7000,-6.5910,0.1350,1.4050,-1.7560,30620,32160,4,16
33348,2.2690,-11.6680,-5.6600,-0.0730,1.3600,-1.6020,30615,32153,4,16
33368,2.2770,-11.3570,-5.2210,-0.2250,1.3050,-1.3870,30609,32144,3,9
33388,2.2490,-10.7240,-5.4530,-0.1460,1.2070,-1.1440,30598,32128,3,9
33408,2.1990,-10.6600,-5.4420,-0.0000,1.1230,-0.9380,30588,32123,5,25
33428,2.1280,-10.6910,-5.1630,0.0580,1.0880,-0.7780,30579,32124,4,16
33448,2.1020,-10.2840,-5.2920,-0.1440,1.0780,-0.6360,30584,32127,4,16
33468,1.7560,-9.7340,-4.9600,-0.3140,1.0740,-0.5060,30583,32130,4,16
33488,1.4990,-9.1850,-4.7290,-0.4340,1.0660,-0.3760,30585,32131,4,16
33508,1.0930,-8.7640,-4.3010,-0.3760,1.0270,-0.1800,30591,32140,4,16
33530,0.9390,-8.5990,-3.8300,-0.4520,1.0030,-0.0430,30599,32148,6,36
33550,0.6960,-8.3700,-3.8320,-0.5790,0.9610,0.0900,30607,32154,4,16
33570,0.4380,-8.0350,-3.5410,-0.6330,0.9100,0.2080,30610,32157,2,4
33590,0.1400,-7.6880,-2.9980,-0.5370,0.8930,0.2760,30616,32155,3,9
33610,0.0230,-8.3990,-2.8020,-0.5480,0.9080,0.3470,30619,32162,4,16
33630,-0.2510,-8.2310,-2.9810,-0.6470,0.8920,0.3310,30635,32169,4,16
33650,-0.4300,-8.0100,-3.3970,-0.7290,0.8110,0.3190,30642,32171,4,16
33670,-0.7330,-7.8020,-3.4080,-0.7410,0.7040,0.2970,30638,32166,4,16
33690,-0.8140,-8.0410,-2.7640,-0.5770,0.5550,0.2810,30618,32150,2,4
33711,-0.8950,-7.9990,-2.8470,-0.5330,0.4430,0.2790,30608,32148,4,16
33731,-0.9300,-8.0170,-3.5020,-0.5260,0.2920,0.2970,30604,32149,3,9
33751,-0.8760,-8.0850,-4.3590,-0.3430,0.0760,0.3220,30609,32151,2,4
33771,-0.7580,-8.4020,-4.3970,-0.0290,-0.1230,0.3500,30621,32160,4,16
33791,-0.6520,-9.0440,-4.9130,0.0940,-0.2380,0.3600,30642,32172,2,4
33811,-0.4570,-9.8590,-5.7220,-0.0620,-0.3270,0.3660,30651,32173,3,9
33831,-0.3680,-10.3490,-5.6910,-0.4750,-0.3780,0.3510,30657,32171,3,9
33851,-0.3750,-10.7300,-5.8470,-0.7530,-0.3740,0.2620,30653,32168,4,16
33871,-0.0260,-10.9360,-6.2400,-0.8210,-0.3570,0.1240,30646,32172,1,1
33891,0.5940,-10.3980,-6.9400,-0.8070,-0.4730,-0.0060,30666,32196,4,16
33912,0.9150,-10.6760,-7.4570,-0.7860,-0.5850,-0.0930,30696,32222,3,9
33932,1.6890,-10.9790,-8.0510,-0.7170,-0.7520,-0.2090,30720,32240,3,9
33952,2.0450,-10.3870,-7.7400,-0.5610,-0.9450,-0.2580,30748,32280,2,4
33972,2.1300,-9.6230,-6.7130,-0.3220,-1.1400,-0.2840,30814,32344,5,25
33992,2.1250,-9.3240,-6.0930,-0.0190,-1.3140,-0.2730,30891,32415,4,16
34012,2.0200,-8.6320,-5.4350,-0.1280,-1.4340,-0.2560,30978,32494,3,9
34032,1.8510,-7.8610,-5.0040,-0.2180,-1.5360,-0.2460,31061,32563,3,9
34052,1.7970,-7.7790,-4.8930,-0.2760,-1.6210,-0.2560,31137,32622,4,16
34072,1.7240,-7.6380,-4.7800,-0.2740,-1.6720,-0.2920,31192,32664,6,36
34092,1.6450,-7.2900,-4.8760,-0.1400,-1.6910,-0.3050,31270,32736,5,25
34113,1.5870,-7.2540,-5.1180,-0.0750,-1.6760,-0.2680,31329,32789,3,9
34133,1.4980,-6.9500,-5.0310,-0.0790,-1.6210,-0.2400,31385,32834,3,9
34153,1.6110,-6.8920,-5.3020,-0.1980,-1.5480,-0.2260,31434,32870,5,25
34173,1.5790,-6.8940,-5.2710,-0.1510,-1.4440,-0.2040,31472,32888,4,16
34193,1.4640,-7.3240,-5.3060,-0.0570,-1.2930,-0.1600,31517,32921,5,25
34213,1.3050,-7.3780,-5.4350,-0.0570,-1.1370,-0.1550,31561,32970,3,9
34233,1.2160,-7.3500,-5.4560,-0.1070,-1.0130,-0.1330,31634,33039,3,9
34253,1.1790,-7.1550,-5.1950,-0.2830,-0.9060,-0.1490,31717,33094,3,9
34273,1.0630,-6.7960,-4.8910,-0.4870,-0.8150,-0.2220,31812,33160,4,16
34295,0.8450,-6.9190,-4.5300,-0.4350,-0.7540,-0.2550,31860,33190,4,16
34315,0.8310,-7.4200,-4.2150,-0.2460,-0.6370,-0.2840,31896,33206,4,16
34335,1.0630,-7.9610,-5.1460,-0.1520,-0.5520,-0.3220,31911,33213,3,9
34355,1.3380,-8.8180,-5.7370,-0.0420,-0.4960,-0.3410,31918,33212,4,16
34375,1.3930,-9.0960,-5.4840,0.0760,-0.4280,-0.4000,31927,33215,4,16
34395,1.3160,-9.6290,-5.3270,0.1380,-0.3190,-0.4540,31921,33202,4,16
34415,1.4900,-10.3430,-5.4280,0.1880,-0.1850,-0.5310,31907,33193,5,25
34435,1.8100,-11.3820,-6.0960,0.0880,-0.0660,-0.5930,31893,33180,4,16
34455,2.2030,-11.8820,-7.5430,-0.1550,-0.0420,-0.6360,31862,33147,4,16
34476,2.4960,-11.7790,-6.5190,-0.2320,-0.1040,-0.5780,31842,33127,3,9
34496,2.3000,-11.0060,-4.6910,-0.1930,-0.1760,-0.4280,31821,33110,5,25
34516,1.8730,-10.1290,-3.4460,-0.1370,-0.2370,-0.1890,31800,33095,5,25
34536,1.5910,-9.7120,-3.2380,0.0470,-0.2850,0.0680,31779,33078,4,16
34556,1.6210,-9.4520,-2.9830,0.2220,-0.2560,0.2680,31759,33063,5,25
34576,1.5850,-9.4090,-3.0500,0.2820,-0.1640,0.4320,31750,33057,3,9
34596,1.4680,-8.9950,-3.3650,0.2650,0.0250,0.5400,31738,33048,3,9
34616,1.2330,-8.6540,-3.4580,0.1200,0.2260,0.6240,31734,33045,4,16
34636,1.3680,-8.1370,-3.5400,0.0020,0.3680,0.6930,31713,33021,4,16
34656,1.0830,-7.4960,-3.4640,-0.1440,0.5080,0.7640,31665,32978,5,25
34677,0.8440,-6.8690,-3.5490,-0.1400,0.5310,0.7560,31642,32966,2,4
34697,0.5150,-6.8170,-3.6330,-0.0500,0.5150,0.7020,31631,32963,4,16
34717,0.1340,-7.2200,-3.7240,0.0580,0.5090,0.6510,31625,32963,2,4
34737,-0.1870,-7.7310,-3.7410,0.0820,0.5240,0.6010,31632,32966,3,9
34757,-0.4140,-7.8780,-3.9470,0.0760,0.5440,0.5310,31630,32971,4,16
34777,-0.5720,-8.1030,-4.0920,-0.0180,0.5630,0.4740,31633,32976,5,25
34797,-0.6730,-7.8650,-3.7640,-0.1400,0.5660,0.4170,31637,32984,3,9
34817,-0.7240,-7.8600,-3.6690,-0.1600,0.5360,0.4030,31647,32989,4,16
34837,-0.8680,-8.0510,-3.5840,-0.1690,0.4990,0.4130,31654,32998,2,4
34857,-1.1400,-8.1200,-3.2940,-0.1480,0.4530,0.4310,31664,33004,4,16
34878,-1.2990,-8.0090,-3.4580,-0.1070,0.4520,0.4330,31668,33007,3,9
34898,-1.2250,-8.1080,-3.6990,-0.0630,0.4470,0.4140,31665,32997,3,9
34918,-1.1320,-8.3330,-4.5130,0.0440,0.4340,0.3570,31654,32992,4,16
34938,-0.9480,-8.6850,-5.1100,0.0980,0.4330,0.2900,31654,32982,4,16
34958,-0.9060,-8.8930,-5.3760,0.0830,0.4410,0.2290,31648,32976,4,16
34978,-1.0320,-9.2990,-5.5560,0.0990,0.4390,0.1930,31635,32964,3,9
34998,-1.2430,-10.1930,-6.1600,0.0720,0.4730,0.1190,31630,32954,3,9
35018,-1.2030,-11.2600,-7.1480,-0.1620,0.5240,-0.0320,31622,32957,4,16
35038,-0.7700,-11.1060,-7.5350,-0.4850,0.5140,-0.1660,31620,32947,3,9
35058,-0.1330,-10.1600,-7.3050,-0.5240,0.3340,-0.2370,31602,32924,4,16
35079,-0.1300,-9.4640,-6.5470,-0.3300,0.1860,-0.2230,31592,32922,4,16
35099,-0.2120,-8.9400,-5.8990,-0.1380,0.0480,-0.1960,31597,32929,3,9
35119,-0.4360,-8.5430,-5.5920,-0.0160,-0.0970,-0.1490,31606,32935,5,25
35139,-0.6180,-8.5170,-5.5840,0.0480,-0.2210,-0.1060,31615,32939,3,9
35159,-0.5670,-8.7400,-5.7640,0.1300,-0.3220,-0.0910,31617,32936,5,25
35179,-0.2720,-8.9090,-5.8270,0.1970,-0.4110,-0.0680,31611,32938,2,4
35199,-0.0740,-8.7650,-5.8650,0.2560,-0.4900,-0.0440,31615,32943,5,25
35219,0.1080,-8.6410,-5.8390,0.2450,-0.5300,-0.0050,31616,32945,4,16
35239,0.3450,-8.5510,-5.5920,0.1780,-0.5350,0.0680,31620,32949,4,16
35260,0.4920,-8.2010,-5.0470,0.1740,-0.5070,0.1470,31625,32953,4,16
35280,0.3770,-8.0430,-4.7940,0.2120,-0.4690,0.2290,31626,32956,2,4
35300,0.2370,-7.8960,-4.3710,0.2440,-0.4010,0.2880,31624,32959,3,9
35320,0.0450,-7.7750,-4.0410,0.2450,-0.3180,0.3140,31630,32964,3,9
35340,-0.2550,-7.5990,-3.8120,0.2050,-0.2200,0.3100,31633,32973,4,16
35360,-0.4560,-7.4590,-3.7100,0.1640,-0.1320,0.2930,31638,32974,5,25
35380,-0.6680,-7.0950,-3.5950,0.1810,-0.0540,0.2360,31637,32974,4,16
35400,-0.7450,-7.2040,-3.7210,0.1610,0.0070,0.1960,31639,32977,4,16
35420,-0.8480,-7.3810,-3.7920,0.1240,0.0580,0.1300,31643,32979,3,9
35440,-0.9550,-7.6550,-3.5480,0.1310,0.1470,0.0560,31632,32967,5,25
35461,-1.0430,-7.8270,-3.6270,0.1450,0.2090,0.0120,31626,32960,3,9
35481,-1.1590,-7.9150,-3.7640,0.1540,0.2720,-0.0270,31616,32956,4,16
35501,-1.2680,-8.0900,-4.0670,0.1490,0.3240,-0.0590,31608,32957,5,25
35521,-1.3140,-8.4110,-4.4870,0.1770,0.3650,-0.0970,31598,32950,4,16
35541,-1.1130,-9.1120,-4.8150,0.1970,0.4210,-0.1530,31597,32950,3,9
35561,-0.8390,-9.4010,-4.9110,0.1630,0.4750,-0.2130,31593,32945,4,16
35581,-0.6010,-9.5590,-4.8280,0.1520,0.4780,-0.2490,31588,32938,4,16
35601,-0.7830,-9.6370,-4.4600,0.1260,0.4640,-0.2570,31579,32931,4,16
35621,-0.8790,-10.4210,-4.8570,0.0910,0.5270,-0.2760,31578,32936,5,25
35641,-0.5370,-11.2930,-5.7050,0.0110,0.6230,-0.3550,31580,32939,4,16
35662,-0.1070,-11.9180,-6.3840,-0.0040,0.6740,-0.3780,31574,32931,5,25
35682,0.6490,-12.4870,-6.9250,-0.0090,0.6780,-0.3970,31570,32934,4,16
35702,1.2160,-11.1610,-5.5980,-0.1960,0.5460,-0.3180,31572,32929,5,25
35722,1.2100,-9.5890,-4.0460,-0.3660,0.3110,-0.1690,31567,32929,2,4
35742,0.8420,-8.7510,-3.1440,-0.2690,0.1080,-0.0610,31572,32927,4,16
35762,0.6730,-8.5740,-2.7130,0.0120,-0.0230,-0.0150,31565,32931,4,16
35782,0.4910,-8.8080,-2.8120,0.1790,-0.0680,-0.0120,31576,32940,3,9
35802,0.3290,-8.6610,-3.1110,0.2120,-0.0470,-0.0130,31575,32943,5,25
35822,0.2290,-8.5030,-3.6890,0.1880,-0.0120,0.0090,31571,32943,4,16
35842,0.1410,-8.2200,-4.0510,0.0550,0.0250,0.0800,31572,32947,5,25
35863,0.0170,-7.7490,-3.7410,-0.0750,0.0500,0.1340,31578,32949,6,36
35883,-0.1880,-7.4240,-3.3380,-0.1890,0.0720,0.1650,31576,32944,4,16
35903,-0.3780,-7.4960,-3.2450,-0.2680,0.0910,0.1870,31568,32944,5,25
35923,-0.4810,-7.3710,-3.0630,-0.2890,0.1040,0.1980,31566,32934,3,9
35943,-0.4750,-7.5000,-3.1850,-0.2680,0.0970,0.2160,31560,32936,4,16
35963,-0.4080,-7.6530,-3.1340,-0.2950,0.0780,0.2220,31559,32936,3,9
35983,-0.4240,-7.7180,-3.2000,-0.3570,0.0560,0.1990,31555,32935,4,16
36003,-0.4470,-7.7430,-3.2780,-0.4450,0.0270,0.1610,31549,32933,4,16
36023,-0.5220,-7.5410,-2.9630,-0.4700,-0.0640,0.1430,31547,32934,4,16
36045,-0.7050,-7.8490,-2.7200,-0.4140,-0.1310,0.1610,31543,32932,4,16
36065,-1.0020,-7.9450,-2.7350,-0.3590,-0.1870,0.1780,31538,32932,3,9
36085,-1.2390,-8.1020,-2.9290,-0.2560,-0.2480,0.1850,31541,32933,3,9
36105,-1.4930,-8.5030,-3.1640,-0.2510,-0.2940,0.1850,31545,32934,3,9
36125,-1.6860,-9.1200,-3.5820,-0.3410,-0.3340,0.1810,31543,32930,4,16
36145,-1.6740,-9.3230,-4.0190,-0.3230,-0.3610,0.1650,31531,32919,2,4
36165,-1.4050,-9.7720,-4.2370,-0.2460,-0.3730,0.1890,31522,32905,5,25
36185,-1.1180,-9.8690,-4.5680,-0.0980,-0.3780,0.1840,31511,32893,4,16
36205,-1.8580,-10.3930,-5.3650,-0.1330,-0.3330,0.1330,31485,32867,4,16
36227,-1.6170,-11.9770,-6.8620,-0.1620,-0.2550,-0.0070,31472,32851,4,16
36247,-0.9160,-12.8740,-7.4480,-0.1900,-0.1850,-0.1330,31443,32811,4,16
36267,-0.2650,-12.3050,-7.1070,-0.1780,-0.1470,-0.1910,31395,32772,5,25
36287,0.2300,-10.7370,-6.1850,-0.1170,-0.2050,-0.1790,31358,32745,4,16
36307,-0.0980,-9.3240,-5.5840,-0.0070,-0.3030,-0.1390,31334,32727,4,16
36327,-0.5820,-9.1640,-5.5280,0.2020,-0.3690,-0.1370,31327,32730,3,9
36347,-0.4860,-9.5470,-5.8390,0.3890,-0.3940,-0.1630,31326,32735,4,16
36367,-0.1220,-10.0420,-5.9480,0.4560,-0.3890,-0.1700,31328,32743,2,4
36387,0.4210,-8.7440,-5.0720,0.4750,-0.2980,-0.1550,31315,32735,3,9
36408,0.6310,-8.3000,-5.0520,0.4210,-0.2920,-0.0580,31291,32716,3,9
36428,0.5390,-8.3500,-5.2390,0.3050,-0.3030,0.0370,31251,32687,4,16
36448,0.2850,-7.8690,-4.4890,0.1910,-0.2560,0.0950,31214,32653,4,16
36468,0.0810,-7.5390,-4.0220,0.3100,-0.1870,0.1440,31174,32629,5,25
36488,-0.1700,-7.3300,-3.8160,0.5100,-0.0810,0.1740,31141,32613,4,16
36508,-0.4090,-7.2560,-3.8510,0.5650,0.0330,0.1820,31121,32605,3,9
36528,-0.4620,-7.5740,-3.8710,0.4060,0.1180,0.1660,31099,32591,4,16
36548,-0.3650,-7.6850,-3.6620,0.1680,0.2070,0.1550,31082,32575,4,16
36568,-0.4310,-7.6650,-3.5220,0.0680,0.3060,0.1670,31053,32554,4,16
36588,-0.6680,-7.7390,-3.5410,0.2420,0.4800,0.1030,31010,32531,3,9
36609,-0.7950,-7.7870,-3.3750,0.3250,0.5780,0.0670,30998,32530,3,9
36629,-0.8740,-7.7960,-3.2820,0.2160,0.6350,0.0500,30996,32525,4,16
36649,-1.0790,-7.8580,-3.2990,0.0670,0.6440,0.0190,30993,32522,3,9
36669,-1.2530,-8.1310,-3.4140,0.0820,0.6340,-0.0130,30988,32513,4,16
36689,-1.2210,-8.6010,-3.3610,0.2490,0.6470,-0.0730,30985,32510,5,25
36709,-0.9680,-9.1640,-3.4640,0.3870,0.6890,-0.1410,30984,32511,3,9
36729,-0.6970,-9.6130,-3.9070,0.3590,0.7010,-0.1720,30990,32518,2,4
36749,-0.9680,-10.4410,-4.6410,0.2070,0.7150,-0.2160,31002,32524,3,9
36769,-0.5790,-11.9100,-5.7680,0.1200,0.8150,-0.3760,31018,32526,3,9
36790,-0.0670,-12.7830,-6.3030,-0.0200,0.8480,-0.4450,31018,32526,5,25
36810,0.5650,-12.6690,-5.8950,-0.1890,0.8230,-0.4950,31015,32522,4,16
36830,1.0380,-11.4560,-4.5780,-0.2300,0.6950,-0.3870,31014,32523,2,4
36850,1.1830,-10.4480,-3.7570,-0.1700,0.4900,-0.2240,31018,32522,5,25
36870,1.0760,-10.0040,-3.4880,0.0390,0.2900,-0.0820,31023,32528,3,9
36890,1.0010,-9.9710,-3.2480,0.2050,0.1230,0.0320,31035,32538,3,9
36910,1.0210,-9.9320,-2.7810,0.2720,0.0640,0.1150,31050,32553,3,9
36930,1.0260,-9.4800,-2.7460,0.3310,0.0990,0.1670,31056,32555,3,9
36950,0.8990,-9.0930,-2.9620,0.3070,0.1910,0.2280,31061,32566,4,16
36970,0.4740,-8.1820,-2.8130,0.1500,0.3180,0.2860,31065,32574,4,16
36991,0.1030,-7.7340,-2.5140,0.0590,0.3800,0.3320,31066,32573,3,9
37011,-0.2440,-7.6090,-2.2880,-0.0480,0.4100,0.3730,31062,32566,3,9
37031,-0.6600,-7.3720,-2.1070,-0.1110,0.4140,0.3640,31058,32557,3,9
37051,-0.9460,-7.3500,-2.0840,-0.1210,0.4130,0.3460,31043,32533,4,16
37071,-1.1410,-7.7400,-2.0700,-0.1870,0.4400,0.3490,31025,32513,3,9
37091,-1.2620,-7.9860,-2.1010,-0.2810,0.4830,0.3170,31013,32498,3,9
37111,-1.4320,-8.0400,-2.5200,-0.2430,0.4970,0.2690,30994,32487,3,9
37131,-1.4130,-8.0030,-2.7440,-0.1870,0.4320,0.2300,30983,32478,4,16
37151,-1.2650,-7.9690,-2.8460,-0.1610,0.3490,0.2140,30974,32476,3,9
37171,-1.1600,-8.3950,-2.6710,-0.1220,0.2260,0.2370,30961,32470,3,9
37192,-1.3350,-8.7900,-2.5910,-0.0770,0.1480,0.2810,30959,32482,5,25
37212,-1.5200,-8.9320,-2.5380,0.0380,0.0800,0.3200,30968,32489,4,16
37232,-1.4750,-9.4440,-2.9600,0.1090,0.0100,0.3590,30973,32496,3,9
37252,-1.4140,-9.9540,-3.3900,0.0620,-0.0610,0.3700,30980,32510,3,9
37272,-1.1830,-10.4030,-3.7400,-0.0420,-0.1030,0.3550,30987,32512,4,16
37292,-0.8400,-10.6000,-4.0020,-0.1030,-0.1050,0.3400,30999,32522,3,9
37312,-1.0640,-10.9390,-4.3780,-0.2150,-0.0830,0.2990,31005,32524,4,16
37332,-0.9790,-11.6110,-4.7740,-0.2450,-0.0090,0.1710,31009,32524,3,9
37352,-0.6920,-12.3790,-5.2120,-0.2750,0.0670,0.0420,31003,32520,4,16
37372,-0.4090,-11.4960,-4.8850,-0.2980,0.1130,-0.0880,30990,32510,3,9
37393,-0.3400,-10.6510,-4.2820,-0.2730,0.0800,-0.1210,30986,32506,3,9
37413,-0.3720,-9.4300,-3.6450,-0.2100,0.0220,-0.1200,30982,32504,3,9
37433,-0.6370,-8.4190,-3.2860,-0.1570,-0.0620,-0.1130,30980,32507,2,4
37453,-0.8030,-8.0600,-3.4790,-0.0600,-0.1790,-0.1480,30984,32505,4,16
37473,-0.7550,-8.3550,-3.8040,0.0860,-0.3000,-0.1860,30985,32507,5,25
37493,-0.6720,-8.7680,-4.0310,0.1570,-0.4060,-0.2390,30980,32501,4,16
37513,-0.4880,-8.8230,-4.0100,0.1200,-0.4640,-0.2900,30971,32497,4,16
37533,-0.2860,-8.8360,-3.9910,0.0870,-0.4760,-0.3150,30969,32491,3,9
37553,-0.0140,-8.5960,-3.9180,0.1800,-0.4440,-0.3100,30968,32491,4,16
37575,0.0600,-8.4920,-3.8890,0.2040,-0.4270,-0.2710,30963,32493,4,16
37595,-0.0860,-8.1930,-3.7770,0.1670,-0.4020,-0.2380,30966,32498,4,16
37615,-0.1930,-8.1180,-3.6420,0.1350,-0.3720,-0.1940,30967,32497,3,9
37635,-0.3460,-8.0770,-3.4980,0.0890,-0.3280,-0.1620,30969,32496,3,9
37655,-0.5720,-7.9560,-3.2920,0.0650,-0.2780,-0.1450,30967,32497,4,16
37675,-0.7180,-7.9970,-3.1970,0.0550,-0.2150,-0.1390,30967,32500,3,9
37695,-0.8520,-7.9970,-3.2240,0.0060,-0.1500,-0.1380,30970,32498,5,25
37715,-0.9700,-7.9850,-3.3300,-0.0490,-0.0990,-0.1490,30967,32498,3,9
37735,-1.0090,-8.3740,-3.2490,-0.0350,-0.0260,-0.1770,30964,32500,4,16
37756,-0.9460,-8.5080,-3.1660,-0.0330,0.0240,-0.1800,30961,32493,3,9
37776,-0.9890,-8.5700,-3.2620,0.0050,0.0630,-0.1710,30956,32493,3,9
37796,-0.9710,-8.8730,-3.3710,0.0660,0.0960,-0.1510,30954,32493,4,16
37816,-0.9030,-9.2490,-3.4580,0.0900,0.1190,-0.1280,30950,32493,4,16
37836,-0.7530,-9.5920,-3.5820,0.1120,0.1510,-0.1180,30949,32487,3,9
37856,-0.5200,-9.9970,-3.7920,0.0730,0.1870,-0.1180,30946,32485,4,16
37876,-0.2940,-10.2690,-3.8360,-0.0290,0.2090,-0.1310,30939,32481,2,4
37896,-0.0240,-10.4580,-3.5080,-0.0420,0.2110,-0.1160,30936,32472,4,16
37916,-0.0620,-10.8010,-3.2060,0.0070,0.2240,-0.0710,30923,32462,4,16
37936,0.4360,-12.0180,-4.0020,0.1310,0.3620,-0.0910,30924,32472,4,16
37957,0.6880,-12.1590,-4.2310,0.0610,0.4320,-0.1010,30926,32466,4,16
37977,1.0200,-12.1730,-4.4870,0.0170,0.4900,-0.1070,30922,32466,3,9
37997,1.3470,-11.5600,-4.0150,-0.1510,0.4760,-0.0670,30921,32458,4,16
38017,1.2990,-10.5810,-3.1600,-0.4030,0.3580,0.0280,30915,32457,3,9
38037,1.2520,-9.4930,-1.9730,-0.4270,0.2130,0.1560,30907,32450,4,16
38057,1.2250,-9.1480,-1.4900,-0.1730,0.1210,0.2430,30903,32451,4,16
38077,1.1560,-9.0780,-1.5490,0.1030,0.1130,0.2600,30904,32450,3,9
38097,0.9240,-9.0760,-1.8720,0.2050,0.1690,0.2380,30903,32451,4,16
38117,0.6300,-8.7960,-2.3280,0.2300,0.2460,0.2110,30903,32453,4,16
38137,0.2720,-8.3630,-2.5470,0.0680,0.3210,0.2090,30908,32458,6,36
38158,-0.1710,-7.7700,-2.2580,-0.1050,0.3460,0.1950,30909,32453,3,9
38178,-0.5570,-7.4970,-1.8770,-0.1790,0.3570,0.1780,30903,32451,4,16
38198,-0.8570,-7.4400,-1.5310,-0.1440,0.3670,0.1650,30899,32447,5,25
38218,-1.1180,-7.7010,-1.6170,-0.0630,0.3830,0.1500,30896,32442,4,16
38238,-1.1830,-8.0240,-1.8830,-0.0240,0.3970,0.1430,30896,32441,4,16
38258,-1.1820,-8.3210,-2.2890,-0.0570,0.3920,0.1440,30890,32441,3,9
38278,-1.1200,-8.5210,-2.5220,-0.1010,0.3630,0.1420,30892,32447,4,16
38298,-1.0250,-8.6840,-2.5430,-0.1490,0.3200,0.1440,30894,32443,4,16
38318,-0.9480,-8.8130,-2.1130,-0.1830,0.2610,0.1710,30885,32439,4,16
38339,-0.9670,-8.8560,-1.9000,-0.2180,0.2180,0.2110,30885,32441,4,16
38359,-1.0870,-8.8820,-1.9480,-0.2610,0.1610,0.2560,30885,32445,3,9
38379,-1.2620,-9.1000,-2.2650,-0.2600,0.0910,0.2780,30892,32447,4,16
38399,-1.2530,-9.4990,-2.5930,-0.2340,0.0170,0.2700,30887,32447,4,16
38419,-1.1150,-9.9460,-2.8140,-0.2200,-0.0290,0.2490,30889,32445,4,16
38439,-0.9030,-10.4390,-3.1030,-0.2370,-0.0270,0.2260,30889,32442,3,9
38459,-1.0220,-10.7890,-3.6140,-0.3300,0.0250,0.1870,30885,32440,3,9
38479,-1.1650,-11.6140,-4.1050,-0.4590,0.1320,0.0730,30885,32435,5,25
38499,-0.4450,-12.8890,-5.1460,-0.5760,0.2190,-0.0750,30870,32420,4,16
38519,0.1090,-12.1300,-5.3400,-0.8370,0.2350,-0.0920,30849,32390,3,9
38540,0.1750,-11.5140,-5.4760,-1.1070,0.1320,0.0070,30822,32355,3,9
38560,0.1020,-10.6830,-4.8490,-1.5490,0.0350,0.1150,30775,32300,4,16
38580,-0.4410,-9.5460,-3.4550,-1.7030,0.0530,0.2070,30710,32236,3,9
38600,-0.5750,-8.2590,-3.3290,-1.2560,0.1170,0.1560,30649,32189,3,9
38620,-1.1940,-8.2350,-4.8180,-1.0990,0.0810,0.1300,30611,32162,3,9
38640,-1.0330,-8.2580,-4.8970,-1.2880,0.0390,0.1080,30586,32139,3,9
38660,-0.9500,-7.5410,-4.6360,-1.5930,0.0290,-0.0260,30551,32105,3,9
38680,-0.8440,-6.7980,-4.4110,-1.2690,0.0300,-0.0850,30510,32074,4,16
38700,-0.5630,-6.9440,-4.7300,-0.6100,0.0800,-0.0840,30483,32066,4,16
38720,0.2040,-7.2440,-5.1220,0.0710,0.1600,-0.0890,30478,32080,3,9
38741,0.2940,-6.9620,-5.4260,0.2820,0.1590,-0.0600,30488,32087,3,9
38761,0.2020,-6.9810,-5.7130,0.5560,0.1490,-0.0560,30491,32098,3,9
38781,0.2430,-7.5420,-5.8260,0.5690,0.1160,-0.0440,30504,32116,4,16
38801,-0.0350,-7.6840,-5.7380,0.4260,0.1000,-0.0360,30522,32130,2,4
38821,-0.3880,-7.7370,-5.5010,0.2900,0.1140,-0.0160,30535,32143,4,16
38841,-0.6280,-7.3370,-5.0700,0.3430,0.1520,0.0110,30546,32155,4,16
38861,-0.5700,-7.3990,-4.9720,0.3780,0.1820,0.0380,30574,32188,5,25
38881,-0.6550,-7.7260,-5.2360,0.3530,0.2090,0.0620,30604,32220,3,9
38901,-0.8660,-7.7260,-5.1800,0.2850,0.2120,0.0790,30649,32267,4,16
38921,-1.0630,-7.6760,-4.7620,0.2590,0.1990,0.1070,30734,32330,3,9
38942,-0.9340,-8.1860,-4.9760,0.3200,0.2160,0.1210,30790,32369,4,16
38962,-0.7580,-8.8650,-5.1070,0.2860,0.2420,0.1510,30830,32393,4,16
38982,-0.5280,-9.1880,-5.3310,0.2050,0.2840,0.1390,30861,32409,5,25
39002,-0.4610,-9.2200,-5.4790,0.1600,0.2980,0.1420,30883,32422,5,25
39022,-0.2850,-9.4040,-5.6310,0.2000,0.2890,0.1350,30898,32421,4,16
39042,-0.4500,-9.5770,-5.3470,0.2690,0.2610,0.1420,30890,32415,5,25
39062,-0.3440,-10.3380,-5.4550,0.3090,0.3070,0.1270,30880,32408,4,16
39082,-0.2070,-11.0480,-5.9260,0.2330,0.3790,0.0760,30878,32399,3,9
39102,0.1690,-11.4920,-6.5580,0.0880,0.4650,0.0170,30869,32398,3,9
39122,0.8760,-11.1190,-5.9230,-0.2280,0.4690,0.0310,30865,32395,4,16
39143,0.9530,-9.9560,-4.4580,-0.3680,0.3450,0.1070,30860,32384,4,16
39163,0.9500,-9.3860,-3.6550,-0.2620,0.2040,0.2100,30856,32385,5,25
39183,0.7730,-9.0290,-3.3350,-0.0200,0.0830,0.2530,30860,32390,3,9
39203,0.6270,-8.6680,-3.1150,0.1440,0.0280,0.2210,30869,32394,4,16
39223,0.3780,-8.6130,-3.1580,0.2530,0.0290,0.1630,30873,32392,4,16
39243,-0.0040,-8.5560,-3.5080,0.2390,0.1070,0.1040,30876,32394,3,9
39263,-0.2350,-8.4170,-3.5280,0.1590,0.1880,0.0660,30884,32395,4,16
39283,-0.3590,-8.0800,-3.5090,0.2150,0.2280,0.0430,30892,32406,4,16
39303,-0.6500,-6.9020,-3.1030,-0.1000,0.2780,0.0310,30910,32415,5,25
39324,-0.9130,-7.0200,-3.2970,-0.1500,0.2440,0.0030,30911,32425,5,25
39344,-1.0940,-7.5480,-3.5160,-0.1480,0.2090,-0.0260,30915,32437,4,16
39364,-1.1980,-7.9140,-3.7170,-0.1000,0.1830,-0.0480,30918,32448,4,16
39384,-1.0550,-7.9790,-3.8500,-0.0650,0.1620,-0.0520,30908,32454,4,16
39404,-0.8810,-7.9850,-3.9530,-0.0590,0.1240,-0.0210,30903,32455,4,16
39424,-0.8080,-8.5050,-3.8520,-0.1440,0.0920,0.0080,30890,32456,3,9
39444,-0.9600,-8.6240,-3.5060,-0.3120,0.0560,0.0360,30876,32451,5,25
39464,-1.0400,-8.3290,-3.6400,-0.3210,0.0090,0.0690,30864,32444,4,16
39484,-1.2070,-8.1630,-3.6830,-0.2750,-0.0850,0.1100,30850,32436,5,25
39504,-1.5260,-8.5760,-3.4630,-0.2920,-0.2210,0.1510,30838,32434,3,9
39525,-1.2340,-8.9180,-4.2100,-0.2490,-0.2940,0.1360,30826,32418,4,16
39545,-1.2090,-9.6220,-4.7050,-0.2410,-0.3120,0.0920,30814,32407,4,16
39565,-1.0810,-10.1060,-4.9380,-0.2590,-0.2680,0.0580,30798,32399,3,9
39585,-1.4140,-10.2770,-5.3920,-0.3770,-0.1700,0.0150,30784,32384,3,9
39605,-1.2740,-11.2870,-6.7360,-0.4680,-0.0200,-0.1000,30772,32374,3,9
39625,-0.6360,-12.4830,-8.0560,-0.6110,0.1010,-0.2660,30755,32358,4,16
39645,0.4110,-12.1640,-7.5530,-0.5860,0.1330,-0.3380,30739,32339,3,9
39665,0.8380,-10.2410,-5.9720,-0.3970,0.0980,-0.2740,30717,32316,3,9
39685,0.7170,-9.0030,-5.5610,-0.0990,-0.0170,-0.1520,30703,32310,3,9
39705,-0.1530,-8.4280,-4.9940,0.0230,-0.2130,-0.0630,30711,32313,3,9
39726,-0.0990,-7.5870,-4.6200,0.1690,-0.3000,-0.1190,30708,32301,2,4
39746,0.0010,-8.0460,-4.2050,0.1930,-0.3610,-0.1330,30706,32282,3,9
39766,0.3970,-8.0100,-4.3100,0.1830,-0.3930,-0.2040,30694,32274,3,9
39786,0.8420,-7.9940,-4.9200,0.1290,-0.3980,-0.2610,30690,32269,3,9
39806,0.9050,-8.1610,-5.0240,0.2840,-0.3830,-0.2400,30693,32266,4,16
39826,0.9210,-8.7740,-4.9450,0.3140,-0.3190,-0.2040,30700,32274,3,9
39846,0.7330,-8.5540,-5.0900,0.0900,-0.2430,-0.1850,30712,32274,3,9
39866,0.6700,-8.0280,-5.1000,-0.0870,-0.1800,-0.1570,30711,32262,4,16
39886,0.5810,-7.7550,-5.0360,-0.0460,-0.1340,-0.1090,30700,32251,3,9
39906,0.2430,-7.5440,-4.9330,0.0050,-0.0490,-0.0850,30686,32232,3,9
39927,0.0230,-7.7070,-4.6220,-0.1770,0.0070,-0.0740,30673,32218,4,16
39947,-0.0690,-7.4660,-4.2930,-0.4400,0.0930,-0.0980,30662,32204,4,16
39967,-0.3520,-7.0170,-4.6840,-0.5070,0.1390,-0.1380,30645,32184,4,16
39987,-0.5040,-6.9590,-4.3560,-0.2860,0.1700,-0.1740,30620,32172,4,16
40007,-0.6880,-7.2080,-4.4150,0.0080,0.2080,-0.2210,30612,32168,4,16
40027,-0.7030,-8.0350,-4.4410,0.1460,0.2530,-0.2410,30609,32174,3,9
40047,-0.6020,-8.5080,-4.2720,-0.0020,0.2980,-0.2600,30628,32189,3,9
40067,-0.4930,-8.6360,-4.3860,-0.1060,0.3420,-0.2260,30643,32195,5,25
40087,-0.3520,-8.8990,-5.1820,-0.1310,0.3370,-0.1790,30658,32208,5,25
40107,-0.3140,-9.1390,-5.1920,-0.0880,0.3000,-0.1030,30667,32211,3,9
40128,-0.2420,-9.3740,-4.8690,-0.0040,0.3070,-0.0580,30662,32213,4,16
40148,-0.1010,-9.5520,-4.8420,0.0910,0.3380,-0.0470,30664,32225,4,16
40168,0.0840,-9.8280,-4.9610,0.1580,0.3750,-0.0510,30670,32232,3,9
40188,0.0260,-10.0510,-5.1800,0.1220,0.4100,-0.0710,30681,32244,3,9
40208,-0.0420,-10.6410,-5.5530,0.0460,0.4750,-0.1090,30687,32250,3,9
40228,0.2020,-11.2380,-6.2060,0.0120,0.5830,-0.1910,30693,32254,6,36
40248,0.7110,-11.7970,-6.8200,-0.0570,0.6770,-0.2940,30691,32256,3,9
40268,1.3520,-11.9700,-6.6860,-0.0980,0.7300,-0.3390,30677,32247,5,25
40288,2.1030,-10.3900,-5.0850,-0.0630,0.6540,-0.2340,30658,32234,3,9
40309,2.0890,-8.9040,-3.8560,0.0110,0.4630,-0.0490,30653,32245,5,25
40329,1.8230,-8.0900,-3.2230,0.1510,0.2790,0.1270,30661,32252,5,25
40349,1.6450,-7.9480,-3.0750,0.2090,0.1570,0.2460,30674,32269,4,16
40369,1.6050,-7.8240,-3.0290,0.2700,0.1300,0.2930,30676,32271,5,25
40389,1.6500,-7.8310,-3.3330,0.3010,0.2110,0.3260,30677,32272,3,9
40409,1.6210,-7.8330,-3.8640,0.2870,0.3250,0.3460,30676,32271,4,16
40429,1.4940,-8.0270,-4.1730,0.2040,0.4600,0.3580,30680,32277,5,25
40449,1.3400,-8.2430,-4.0380,0.0700,0.5730,0.3620,30688,32281,4,16
40469,1.1700,-8.1810,-3.6210,-0.0570,0.6450,0.3690,30691,32289,5,25
40489,0.8980,-8.0770,-3.4570,-0.1610,0.6450,0.3710,30692,32288,3,9
40510,0.6730,-8.1180,-3.4130,-0.1490,0.5920,0.3680,30693,32285,3,9
40530,0.3850,-8.0470,-3.4390,-0.0950,0.5330,0.3730,30697,32294,3,9
40550,0.1690,-8.0310,-3.4450,-0.0440,0.4860,0.3960,30707,32297,4,16
40570,-0.0490,-8.1580,-3.4900,-0.0410,0.4560,0.4260,30710,32312,4,16
40590,-0.1980,-8.3130,-3.5460,-0.0640,0.4440,0.4470,30712,32314,3,9
40610,-0.3140,-8.3560,-3.4600,-0.1050,0.4390,0.4690,30715,32320,2,4
40630,-0.3770,-8.4290,-3.4380,-0.1410,0.4460,0.4850,30719,32319,3,9
40650,-0.4970,-8.3900,-3.2440,-0.2000,0.4580,0.5020,30717,32316,4,16
40670,-0.6060,-8.4190,-3.1750,-0.2500,0.4630,0.5160,30713,32318,4,16
40690,-0.8830,-8.2700,-2.9800,-0.3040,0.4380,0.5220,30713,32315,4,16
40711,-1.0040,-8.4890,-3.1760,-0.3230,0.4020,0.4980,30713,32312,4,16
40731,-1.1010,-8.7260,-3.5030,-0.3110,0.3630,0.4390,30714,32309,3,9
40751,-0.9590,-9.1000,-3.8430,-0.2620,0.3290,0.3640,30710,32310,4,16
40771,-0.6940,-9.6010,-4.1500,-0.2160,0.3140,0.2870,30709,32309,3,9
40791,-0.5290,-9.9430,-4.3860,-0.2110,0.3280,0.2240,30701,32301,4,16
40811,-0.8210,-10.4940,-5.1060,-0.2370,0.3850,0.1280,30694,32297,3,9
40831,-0.5170,-11.9540,-6.4440,-0.2640,0.4740,-0.0280,30690,32292,3,9
40851,-0.0240,-12.6680,-7.0690,-0.3470,0.5170,-0.1760,30687,32288,4,16
40871,0.5820,-11.9150,-6.2180,-0.3890,0.5180,-0.1930,30676,32283,3,9
40891,0.7820,-10.6640,-5.5950,-0.2570,0.4520,-0.1140,30674,32294,3,9
40912,0.7650,-10.3920,-5.8050,-0.0710,0.3610,-0.0550,30688,32301,5,25
40932,0.3450,-9.1400,-5.3260,0.0790,0.2300,-0.0010,30695,32301,2,4
40952,-0.0300,-8.3270,-4.9690,0.1900,0.0990,0.0160,30692,32299,2,4
40972,-0.1380,-8.1560,-4.8510,0.2790,-0.0200,-0.0070,30687,32293,4,16
40992,0.0070,-8.0520,-4.8360,0.3700,-0.1150,-0.0590,30685,32289,4,16
41012,0.2330,-7.9450,-4.8340,0.4260,-0.1790,-0.1010,30677,32278,4,16
41032,0.4990,-7.8650,-4.9990,0.4550,-0.2200,-0.1150,30673,32280,3,9
41052,0.7690,-8.0290,-5.2280,0.4400,-0.2480,-0.1050,30669,32279,4,16
41072,0.9280,-8.1000,-5.2040,0.3740,-0.2530,-0.0850,30669,32283,4,16
41092,0.8870,-7.6430,-4.8310,0.2800,-0.2460,-0.0350,30667,32282,4,16
41113,0.6990,-7.3790,-4.5020,0.2620,-0.2220,0.0030,30663,32284,3,9
41133,0.4720,-7.1840,-4.1960,0.2530,-0.1760,0.0250,30668,32288,3,9
41153,0.1990,-7.0090,-4.0960,0.2230,-0.1250,0.0240,30670,32290,4,16
41173,-0.0750,-7.0720,-4.1060,0.1330,-0.0780,0.0130,30673,32295,3,9
41193,-0.2740,-7.1690,-3.9980,0.0350,-0.0290,-0.0140,30676,32296,3,9
41213,-0.4070,-7.2460,-3.9280,-0.0240,0.0240,-0.0520,30677,32297,5,25
41233,-0.4730,-7.3540,-3.8260,-0.0400,0.0880,-0.0880,30677,32300,4,16
41253,-0.4500,-7.6890,-3.9500,-0.0700,0.1470,-0.1190,30680,32298,4,16
41273,-0.5260,-8.0890,-4.1530,-0.1200,0.2010,-0.1570,30672,32296,4,16
41294,-0.5660,-8.3870,-4.1860,-0.1330,0.2240,-0.1790,30675,32299,3,9
41314,-0.5140,-8.7010,-4.3050,-0.0940,0.2490,-0.2040,30672,32299,4,16
41334,-0.2810,-9.1830,-4.4740,-0.0250,0.2730,-0.2290,30668,32298,4,16
41354,0.0160,-9.6130,-4.6620,0.0230,0.2920,-0.2590,30671,32302,3,9
41374,0.2790,-10.0450,-4.7940,0.0050,0.3150,-0.2860,30667,32297,5,25
41394,0.4510,-10.5110,-4.8100,-0.0590,0.3330,-0.3230,30664,32294,4,16
41414,0.6510,-10.8570,-4.7810,-0.0850,0.3340,-0.3490,30658,32282,4,16
41434,0.6220,-11.0490,-4.8910,-0.0560,0.3310,-0.3500,30647,32274,3,9
41454,1.1500,-12.2280,-5.8050,-0.0020,0.3810,-0.3910,30643,32275,4,16
41474,1.7500,-12.6650,-5.9420,-0.1160,0.4070,-0.4250,30638,32274,3,9
41495,2.1090,-11.8180,-4.8140,-0.2190,0.3750,-0.3290,30636,32268,3,9
41515,2.0940,-10.5050,-3.9460,-0.2190,0.2580,-0.1440,30631,32267,4,16
41535,1.9360,-9.9920,-3.6510,-0.0370,0.0840,0.0580,30628,32266,3,9
41555,2.0340,-9.9540,-3.6090,0.2410,-0.0590,0.1910,30628,32269,2,4
41575,2.2310,-9.5410,-3.1770,0.4610,-0.1260,0.2960,30634,32272,3,9
41595,2.3320,-9.2880,-3.1210,0.5310,-0.0920,0.3790,30636,32273,4,16
41615,2.1780,-9.1570,-3.2780,0.4190,0.0220,0.4130,30644,32278,5,25
41635,1.8910,-8.9290,-3.3780,0.2120,0.1480,0.4310,30654,32293,4,16
41655,1.3730,-8.2130,-3.1100,0.0300,0.2560,0.4320,30660,32296,3,9
41675,0.7300,-7.3250,-2.6490,-0.0420,0.3300,0.4300,30682,32328,3,9
41696,0.3480,-6.9190,-2.4280,-0.0880,0.3250,0.4120,30705,32352,3,9
41716,0.0050,-6.6360,-2.2860,-0.0880,0.3040,0.3770,30727,32374,4,16
41736,-0.2600,-6.6150,-2.4540,-0.0410,0.2660,0.3400,30748,32391,4,16
41756,-0.4300,-6.8520,-2.5870,0.0550,0.2470,0.3080,30766,32408,3,9
41776,-0.5270,-7.0080,-2.5870,0.0780,0.2520,0.2760,30785,32420,3,9
41796,-0.5080,-7.2650,-2.8690,0.0580,0.2580,0.2490,30798,32436,4,16
41816,-0.4500,-7.4680,-2.9110,0.0120,0.2600,0.2330,30811,32446,4,16
41836,-0.4230,-7.5680,-2.6820,-0.0100,0.2540,0.2210,30819,32454,3,9
41856,-0.4210,-7.8230,-2.4720,-0.0070,0.2660,0.2040,30827,32462,4,16
41876,-0.5160,-7.9480,-2.7070,0.0320,0.2750,0.1640,30835,32463,3,9
41897,-0.5540,-8.2580,-2.9810,-0.0330,0.2600,0.1370,30840,32474,5,25
41917,-0.5280,-8.8060,-3.1390,-0.1770,0.2400,0.0800,30841,32469,3,9
41937,-0.3530,-9.5270,-3.3820,-0.3180,0.2250,-0.0070,30838,32467,4,16
41957,-0.0490,-10.1270,-3.9320,-0.3980,0.2130,-0.0960,30841,32465,4,16
41977,0.3020,-10.5320,-4.1780,-0.4720,0.1910,-0.1380,30839,32466,4,16
41997,0.2330,-10.3230,-3.8510,-0.5640,0.1410,-0.1460,30834,32464,3,9
42017,-0.5110,-11.3070,-4.9780,-0.7420,0.1210,-0.1980,30839,32464,5,25
42037,0.2390,-13.7340,-6.9760,-0.7370,0.1500,-0.4020,30826,32443,4,16
42057,0.8120,-14.0050,-7.4350,-0.5360,0.1110,-0.5110,30813,32433,4,16
42077,1.1830,-11.8980,-6.0060,-0.2210,-0.0440,-0.4550,30813,32435,4,16
42098,0.9910,-10.8270,-5.7230,-0.1990,-0.2290,-0.3420,30813,32440,4,16
42118,0.8740,-11.0150,-6.0310,-0.0950,-0.4310,-0.2680,30812,32436,3,9
42138,1.0440,-10.9870,-6.2510,0.1630,-0.6200,-0.2320,30810,32432,4,16
42158,1.3860,-10.6960,-5.9750,0.3850,-0.7660,-0.1980,30810,32437,3,9
42178,1.6170,-10.1330,-5.4180,0.4250,-0.8430,-0.1370,30810,32436,5,25
42198,1.6400,-9.4150,-4.9310,0.3700,-0.8650,-0.0510,30808,32438,4,16
42218,1.4980,-8.5350,-4.5410,0.2980,-0.8630,0.0470,30806,32434,4,16
42238,1.2380,-7.7080,-4.0740,0.2080,-0.8500,0.1330,30807,32441,4,16
42258,0.8200,-6.7530,-3.4780,0.0790,-0.8060,0.1880,30813,32446,5,25
42279,0.5830,-6.2780,-3.2570,0.0700,-0.7480,0.1780,30817,32451,4,16
42299,0.4550,-6.0500,-3.2380,0.1130,-0.6640,0.1390,30820,32462,3,9
42319,0.4090,-6.0310,-3.3050,0.1650,-0.5570,0.0730,30827,32471,4,16
42339,0.3570,-6.1640,-3.4020,0.2070,-0.4140,-0.0420,30839,32489,3,9
42359,0.4800,-6.0440,-3.3220,0.2770,-0.2410,-0.1840,30864,32518,5,25
42379,0.5510,-5.7330,-3.2560,0.3230,-0.1200,-0.2540,30892,32541,4,16
42399,0.7410,-6.3460,-3.3020,0.2750,0.0080,-0.3220,30911,32562,3,9
42419,0.9660,-7.1430,-3.4680,0.0990,0.1060,-0.3830,30932,32579,4,16
42439,1.2260,-8.0840,-3.6360,-0.0980,0.1810,-0.4070,30949,32591,3,9
42459,1.3730,-8.7800,-3.9290,-0.3370,0.2340,-0.3870,30948,32583,4,16
42480,1.5620,-9.6740,-4.1960,-0.3690,0.2500,-0.3330,30940,32593,3,9
42500,1.6570,-10.3200,-4.3470,-0.3930,0.3140,-0.3170,30954,32613,4,16
42520,1.6290,-10.5320,-4.2930,-0.4840,0.3940,-0.2960,30981,32644,5,25
42540,1.4100,-10.7360,-3.9880,-0.5770,0.4540,-0.2640,31016,32675,4,16
42560,1.3250,-11.9210,-4.5850,-0.6020,0.5690,-0.2430,31051,32713,2,4
42580,1.4660,-12.8070,-5.2360,-0.5840,0.7290,-0.2870,31094,32749,3,9
42600,2.0840,-12.8650,-5.8050,-0.6390,0.7800,-0.3170,31128,32772,3,9
42620,2.2880,-12.3720,-5.8040,-0.9460,0.7690,-0.2500,31161,32801,3,9
42640,2.3460,-11.4980,-5.1380,-1.2320,0.6520,-0.1900,31201,32837,3,9
42660,2.0640,-9.8640,-3.7860,-0.9900,0.3520,-0.0520,31295,32922,4,16
42681,1.9720,-8.8900,-2.9890,-0.5470,0.2110,0.0520,31406,33013,4,16
42701,1.9370,-8.6710,-3.1280,-0.1310,0.1310,0.1480,31534,33110,5,25
42721,2.0110,-8.8390,-3.6830,-0.0450,0.1410,0.2220,31665,33199,4,16
42741,1.9460,-8.7510,-4.3980,-0.1460,0.1640,0.2940,31769,33263,5,25
42761,1.7820,-8.0190,-4.5140,-0.1940,0.1990,0.3740,31850,33310,3,9
42781,1.5390,-7.1860,-4.2100,-0.1530,0.2140,0.4760,31910,33347,4,16
42801,1.4110,-6.6670,-3.8990,0.0040,0.2460,0.5530,31965,33383,3,9
42821,1.1470,-6.9790,-3.9710,0.1260,0.2760,0.6050,32020,33428,4,16
42841,0.6520,-7.3890,-4.1250,0.1190,0.2680,0.6290,32090,33478,3,9
42861,0.4030,-7.5610,-4.0860,0.0500,0.2280,0.6080,32191,33551,3,9
42882,0.1650,-7.2750,-3.9720,0.0510,0.2010,0.6000,32253,33586,3,9
42902,0.2830,-7.6550,-3.8800,0.1060,0.1800,0.6280,32288,33607,3,9
42922,0.3680,-7.8370,-3.8940,0.0510,0.1690,0.5910,32305,33611,4,16
42942,0.3080,-7.8240,-4.0050,-0.0380,0.1390,0.5200,32308,33602,3,9
42962,0.3280,-7.8250,-4.2770,-0.0080,0.0600,0.4710,32294,33585,3,9
42982,0.3100,-7.8890,-4.1480,0.0010,-0.0460,0.4430,32271,33556,3,9
43002,0.0110,-8.2660,-4.1620,0.0010,-0.1570,0.4340,32214,33506,3,9
43022,-0.1270,-8.8600,-4.5330,0.0440,-0.2420,0.4030,32146,33444,4,16
43042,-0.1210,-9.6130,-4.7060,0.0640,-0.2800,0.3620,32079,33381,3,9
43062,-0.0920,-9.8490,-4.8640,0.1490,-0.2630,0.2860,31958,33286,3,9
43083,-0.4920,-10.1620,-5.0640,0.0610,-0.2060,0.2300,31875,33213,5,25
43103,-0.6880,-10.8410,-5.6770,-0.0720,-0.0870,0.0850,31786,33148,2,4
43123,-0.4360,-11.7470,-6.7940,-0.1780,-0.0110,-0.1280,31701,33082,4,16
43143,0.2380,-12.2610,-7.4000,-0.2270,-0.0110,-0.2430,31619,33013,3,9
43163,0.6540,-11.9640,-7.1220,-0.2140,-0.0570,-0.2880,31536,32954,4,16
43183,0.8730,-10.9060,-6.1400,-0.2380,-0.1370,-0.2730,31461,32905,4,16
43203,0.6800,-9.1690,-4.8760,-0.1240,-0.2500,-0.2110,31406,32871,3,9
43223,0.1650,-8.0590,-4.2940,0.0870,-0.3430,-0.1660,31372,32856,3,9
43243,-0.2890,-7.8700,-4.6600,0.4320,-0.4690,-0.1540,31343,32848,4,16
43265,-0.3350,-8.0090,-4.6460,0.5210,-0.5430,-0.1630,31335,32851,3,9
43285,-0.4110,-7.6940,-4.5500,0.4130,-0.6080,-0.1980,31331,32845,3,9
43305,-0.3850,-7.5690,-4.6050,0.3230,-0.6570,-0.2250,31323,32837,4,16
43325,-0.1740,-7.6420,-4.7030,0.3340,-0.6720,-0.2640,31316,32825,4,16
43345,0.1040,-7.6840,-4.7140,0.4030,-0.6730,-0.2930,31310,32822,3,9
43365,0.2200,-7.6930,-4.5970,0.4360,-0.6740,-0.2780,31305,32816,3,9
43385,0.2200,-7.6030,-4.3380,0.4290,-0.6490,-0.2550,31307,32815,5,25
43405,0.1350,-7.4380,-4.2170,0.3600,-0.6010,-0.2330,31304,32813,4,16
43425,0.1080,-7.5490,-4.4280,0.1850,-0.4960,-0.2020,31299,32805,3,9
43446,-0.0860,-7.5310,-4.2780,0.0440,-0.4090,-0.2090,31296,32799,3,9
43466,-0.1830,-7.3470,-4.1900,0.0380,-0.3330,-0.2180,31288,32781,3,9
43486,-0.2470,-7.8270,-4.2570,0.0050,-0.2580,-0.2120,31273,32768,4,16
43506,-0.3470,-8.0050,-3.9880,-0.0950,-0.1650,-0.2400,31259,32759,3,9
43526,-0.4230,-8.0090,-3.7730,-0.1810,-0.1030,-0.2600,31248,32740,3,9
43546,-0.4170,-8.1450,-3.6680,-0.1850,-0.0840,-0.2620,31221,32714,4,16
43566,-0.3940,-8.3640,-3.7900,-0.1340,-0.0590,-0.2790,31186,32685,3,9
43586,-0.2940,-8.6510,-3.7420,-0.0580,-0.0300,-0.3020,31146,32650,4,16
43606,-0.1390,-8.9790,-3.6760,0.0510,0.0070,-0.3290,31112,32627,4,16
43626,0.4250,-9.9180,-3.8000,0.2080,0.0600,-0.3410,31074,32597,3,9
43647,0.7280,-10.2440,-3.7780,0.2510,0.1170,-0.3250,31056,32579,3,9
43667,0.8100,-11.5780,-4.6790,0.0950,0.2110,-0.3120,31035,32561,4,16
43687,1.1580,-12.8250,-6.0820,0.0650,0.3350,-0.4100,31009,32542,4,16
43707,1.8320,-13.6860,-6.6300,-0.1100,0.4040,-0.4940,30992,32530,4,16
43727,2.6280,-12.9890,-5.8910,-0.3430,0.3650,-0.5070,30977,32513,3,9
43747,3.1620,-11.6430,-4.5600,-0.4060,0.1870,-0.3640,30963,32502,2,4
43767,3.2310,-10.5900,-3.5100,-0.1430,-0.0300,-0.1780,30956,32500,3,9
43787,3.1020,-10.2890,-3.0330,0.2760,-0.2130,0.0010,30965,32509,3,9
43807,2.8950,-10.1630,-2.7610,0.5860,-0.2730,0.1410,30976,32528,3,9
43827,2.3270,-9.5980,-3.1650,0.5770,-0.1490,0.3080,30997,32547,3,9
43848,1.8480,-8.8150,-3.5510,0.4230,-0.0170,0.3710,31004,32551,3,9
43868,1.3630,-7.9860,-3.1790,0.2630,0.0910,0.4380,30999,32546,4,16
43888,0.9070,-7.2640,-2.5510,0.0870,0.1630,0.4720,30993,32536,4,16
43908,0.5870,-6.9250,-2.1300,-0.0310,0.2080,0.4850,30990,32537,3,9
43928,0.2320,-6.8990,-2.0930,-0.0130,0.2290,0.4640,30985,32531,4,16
43948,-0.0230,-7.0450,-2.0530,0.0290,0.2480,0.4150,30981,32533,4,16
43968,-0.2190,-7.2340,-2.1020,-0.0290,0.2520,0.3640,30984,32540,5,25
43988,-0.3200,-7.3240,-2.1810,-0.0500,0.2670,0.3130,30983,32537,5,25
44008,-0.2470,-7.7870,-2.5320,-0.0270,0.2720,0.2700,30988,32539,3,9
44029,-0.1480,-8.2820,-2.7770,-0.0340,0.2520,0.2400,30990,32542,4,16
44049,-0.0440,-8.4590,-2.7640,-0.1000,0.2200,0.2180,30997,32550,4,16
44069,-0.0230,-8.3000,-2.5730,-0.1470,0.1550,0.2330,31002,32540,3,9
44089,-0.1190,-8.3280,-2.3590,-0.1450,0.0710,0.2990,30997,32539,3,9
44109,-0.2410,-8.5500,-2.2650,-0.1930,-0.0150,0.3580,30993,32518,4,16
44129,-0.5480,-8.8290,-2.4760,-0.2890,-0.1190,0.4030,30977,32492,4,16
44149,-0.5590,-9.4540,-2.8120,-0.2810,-0.1650,0.4160,30957,32463,3,9
44169,-0.3720,-10.3200,-3.0710,-0.2170,-0.1270,0.3980,30938,32443,4,16
44189,-0.1830,-10.7980,-3.2540,-0.2200,-0.0180,0.3730,30925,32431,4,16
44209,-0.5200,-11.2740,-4.4020,-0.4030,0.1070,0.2490,30900,32420,3,9
44230,0.0250,-12.2610,-5.5200,-0.3830,0.1730,0.0930,30893,32418,3,9
44250,0.6030,-12.4310,-5.7200,-0.3000,0.2070,-0.0160,30880,32414,3,9
44270,0.6900,-11.9230,-5.2220,-0.2770,0.2030,-0.0710,30867,32411,4,16
44290,0.6540,-10.9670,-4.4380,-0.2520,0.1570,-0.1050,30858,32417,3,9
44310,0.3970,-9.8150,-3.4940,-0.2490,0.1090,-0.0850,30865,32430,3,9
44330,-0.0890,-8.5510,-3.0010,-0.3040,0.0390,-0.0410,30871,32434,3,9
44350,-0.5410,-7.9580,-3.4420,-0.1690,-0.0500,-0.0640,30876,32438,3,9
44370,-0.6510,-8.2070,-3.8120,0.0320,-0.1340,-0.1160,30882,32435,4,16
44390,-0.5090,-8.5760,-4.0450,0.1740,-0.2000,-0.1870,30881,32437,3,9
44410,-0.2440,-8.7690,-4.1230,0.2010,-0.2230,-0.3070,30874,32430,4,16
44431,0.0950,-9.0760,-4.2110,0.2120,-0.2090,-0.3310,30868,32423,2,4
44451,0.4130,-9.0840,-4.1830,0.2090,-0.1760,-0.3390,30864,32422,4,16
44471,0.6310,-8.9560,-4.1920,0.2330,-0.1520,-0.2970,30861,32425,4,16
44491,0.5940,-8.4280,-3.8440,0.1840,-0.1300,-0.2330,30865,32431,4,16
44511,0.3590,-8.0010,-3.5510,0.1480,-0.1210,-0.1760,30866,32435,4,16
44531,0.1750,-7.8950,-3.3930,0.1630,-0.1020,-0.1380,30861,32434,3,9
44551,0.0100,-7.9040,-3.2780,0.2040,-0.0720,-0.1080,30865,32437,4,16
44571,-0.2010,-7.8830,-3.1680,0.2130,-0.0250,-0.1050,30865,32434,3,9
44591,-0.4000,-8.0100,-3.2720,0.1390,0.0310,-0.1120,30864,32441,3,9
44611,-0.5580,-7.9660,-3.3320,0.0390,0.1000,-0.1560,30862,32433,3,9
44632,-0.6020,-8.0150,-3.3150,-0.0010,0.1310,-0.1810,30855,32429,3,9
44652,-0.6000,-8.1750,-3.1770,-0.0350,0.1590,-0.2020,30853,32421,4,16
44672,-0.6200,-8.3350,-3.1180,-0.0210,0.1840,-0.2250,30842,32414,3,9
44692,-0.5850,-8.5680,-3.2370,0.0350,0.2040,-0.2330,30838,32411,4,16
44712,-0.5060,-9.1490,-3.5410,0.0860,0.2110,-0.2270,30834,32412,5,25
44732,-0.2570,-9.8080,-3.8400,0.0990,0.2130,-0.2280,30831,32411,4,16
44752,0.1810,-10.3080,-4.0200,0.0840,0.2220,-0.2200,30831,32411,4,16
44772,0.5280,-10.7140,-4.0850,0.0320,0.2270,-0.1980,30831,32404,3,9
44792,0.7550,-10.6910,-3.7450,-0.0280,0.2170,-0.1600,30824,32402,3,9
44812,0.4130,-10.9390,-3.5460,-0.0960,0.2320,-0.0850,30815,32393,5,25
44833,0.8010,-12.2010,-4.2330,0.0260,0.3290,-0.1190,30812,32393,3,9
44853,1.2630,-12.7180,-4.5070,-0.0240,0.3990,-0.1280,30816,32397,3,9
44873,1.7740,-12.6500,-4.6500,-0.1990,0.4360,-0.1190,30807,32386,4,16
44893,2.2470,-11.7930,-4.0690,-0.3780,0.3890,-0.0380,30803,32381,3,9
44913,2.1630,-10.5010,-3.2120,-0.5610,0.2400,0.1270,30796,32372,3,9
44933,1.9630,-9.7890,-2.6260,-0.7070,0.0990,0.2900,30786,32371,4,16
44953,1.7960,-9.2300,-2.3770,-0.8220,-0.0110,0.4400,30788,32371,4,16
44973,1.6800,-9.2780,-2.5590,-1.0160,-0.0010,0.5460,30793,32378,4,16
44993,0.8980,-9.5560,-2.8950,-1.6280,0.1990,0.6550,30796,32369,3,9
45014,1.4540,-8.3280,-2.3490,-1.6570,0.3610,0.6610,30779,32356,5,25
45034,1.2640,-7.2010,-3.0860,-1.6790,0.4130,0.6640,30758,32333,3,9
45054,0.6310,-7.4910,-4.2990,-1.5970,0.4330,0.6830,30717,32303,4,16
45074,-0.1830,-6.9020,-4.1370,-1.7200,0.4200,0.5110,30684,32276,3,9
45094,-0.6400,-6.7620,-3.2720,-1.8200,0.3770,0.4020,30647,32234,3,9
45114,-1.0730,-6.8820,-3.1630,-1.4950,0.3960,0.3460,30598,32196,3,9
45134,-1.3590,-7.1740,-3.9430,-0.9420,0.3810,0.3600,30567,32183,5,25
45154,-1.2100,-7.7560,-4.5910,-0.5760,0.3480,0.3780,30559,32185,5,25
45174,-1.0180,-7.6330,-4.6340,-0.3620,0.3240,0.3280,30562,32198,5,25
45194,-0.5590,-6.7360,-5.3880,0.0300,0.2920,0.2160,30580,32226,4,16
45215,-0.7510,-6.9440,-4.9810,-0.1280,0.2440,0.1690,30620,32249,4,16
45235,-0.4310,-7.6970,-5.2710,-0.2480,0.2130,0.1140,30655,32274,3,9
45255,-0.7540,-7.7010,-5.1770,-0.2070,0.1700,0.1390,30698,32307,4,16
45275,-0.8150,-7.9790,-5.2540,-0.1090,0.1140,0.1640,30771,32363,4,16
45295,-0.9010,-8.0030,-5.8160,-0.0560,0.0540,0.1500,30851,32415,4,16
45315,-0.7980,-8.2490,-6.2210,-0.0400,-0.0080,0.0980,30923,32448,4,16
45335,-0.5300,-8.5770,-6.6400,-0.1850,-0.0170,0.0420,30958,32451,4,16
45355,-0.6170,-9.5440,-7.6660,-0.4190,0.0500,-0.0580,30970,32456,3,9
45375,-0.1920,-11.0210,-9.8160,-0.6210,0.1640,-0.2140,30974,32449,4,16
45395,0.7370,-10.5680,-9.5800,-0.5490,0.2160,-0.3500,30954,32426,4,16
45416,1.0220,-10.3050,-8.5470,-0.5910,0.1980,-0.3020,30922,32398,5,25
45436,1.0670,-9.2520,-7.6850,-0.5320,0.1040,-0.2320,30887,32372,2,4
45456,0.6960,-8.6970,-6.8850,-0.3780,-0.0090,-0.1440,30870,32360,3,9
45476,0.0840,-7.7400,-6.0850,-0.2250,-0.1240,-0.1050,30858,32349,2,4
45496,-0.1720,-7.3850,-5.7500,-0.0100,-0.2420,-0.1000,30848,32332,3,9
45516,-0.3520,-6.9660,-5.4180,0.1430,-0.3090,-0.1800,30839,32320,4,16
45536,-0.1900,-6.9640,-6.2320,0.2470,-0.4080,-0.2990,30833,32313,4,16
45556,-0.1530,-6.6010,-6.8140,0.4330,-0.5260,-0.3970,30831,32299,3,9
45576,-0.0370,-6.7840,-6.9070,0.5330,-0.6170,-0.4840,30832,32293,5,25
45596,0.1700,-7.1360,-6.6570,0.5140,-0.6340,-0.5510,30834,32289,4,16
45617,0.1010,-6.8010,-6.1780,0.5050,-0.6280,-0.5470,30836,32282,3,9
45637,-0.1210,-6.9780,-5.6990,0.5890,-0.5570,-0.5010,30837,32283,4,16
45657,-0.2140,-7.0880,-5.2970,0.5650,-0.4630,-0.4430,30839,32298,4,16
45677,-0.2260,-7.4540,-4.7260,0.4470,-0.3530,-0.3350,30857,32320,4,16
45697,-0.4330,-7.3300,-4.2640,0.2160,-0.2500,-0.2210,30880,32338,4,16
45717,-0.5930,-6.6030,-4.3890,0.2160,-0.1210,-0.1730,30903,32361,4,16
45737,-0.6330,-6.5600,-4.3830,0.3050,-0.0230,-0.1470,30938,32393,4,16
45757,-0.7460,-7.0350,-4.3190,0.3230,0.0920,-0.1430,30981,32435,5,25
45777,-0.4920,-7.1750,-4.4770,0.2170,0.2080,-0.1750,31036,32488,4,16
45797,-0.2010,-7.0470,-5.1560,0.2110,0.2910,-0.2320,31124,32571,3,9
45818,-0.0570,-7.0880,-5.0910,0.2870,0.3260,-0.2770,31187,32626,3,9
45838,0.0660,-7.1990,-4.9160,0.4140,0.3750,-0.3420,31252,32689,4,16
45858,0.2540,-7.1890,-4.3260,0.5780,0.4640,-0.4150,31320,32745,4,16
45878,0.5840,-7.1180,-3.9430,1.0000,0.5880,-0.5280,31370,32772,4,16
45898,1.0460,-7.2480,-3.4070,1.3440,0.7950,-0.6800,31398,32780,4,16
45918,1.5950,-6.6700,-2.7710,1.6390,0.9830,-0.9080,31383,32753,4,16
45938,2.1310,-6.5910,-1.6400,2.0070,1.2510,-1.1970,31344,32717,4,16
45958,3.1270,-6.3890,-0.9790,2.6510,1.5520,-1.6340,31292,32663,3,9
45978,5.6650,-6.9780,-3.0080,4.0690,1.6120,-2.3080,31206,32590,2,4
45999,7.2500,-8.8300,-2.3550,4.1850,1.6330,-2.7910,31179,32584,1,1
46019,8.4140,-8.1580,0.0890,3.1460,1.5370,-3.2960,31204,32605,5,25
46039,8.9150,-6.8280,1.3430,2.3380,1.3550,-3.4800,31224,32623,3,9
46059,9.6950,-6.6850,2.0410,1.5960,1.2120,-3.4240,31244,32632,5,25
46079,10.8350,-7.3980,2.0690,1.4600,1.2100,-3.3520,31257,32636,4,16
46099,11.8700,-8.3350,1.2800,1.3010,1.1950,-3.4030,31270,32637,4,16
46119,11.7390,-7.5170,1.4890,0.8110,1.2000,-3.2480,31266,32623,3,9
46139,11.4050,-6.8800,1.0590,0.2970,1.1430,-3.0530,31252,32593,3,9
46159,10.3350,-6.8530,-0.5700,-0.0560,1.0360,-2.8670,31230,32573,3,9
46179,8.8410,-5.9150,-0.0300,-0.4180,0.9530,-2.5260,31201,32533,4,16
46200,8.2490,-5.8900,0.5810,-0.6070,0.9220,-2.3280,31184,32519,3,9
46220,8.2250,-6.7540,0.7580,-0.8430,0.9290,-2.1770,31175,32509,3,9
46240,8.2770,-6.8410,0.6150,-1.1990,0.9130,-2.0320,31175,32511,4,16
46260,8.2500,-7.2530,-0.0690,-1.5200,0.8140,-1.8680,31178,32507,4,16
46280,8.0070,-6.4610,-0.0280,-1.5040,0.7620,-1.7580,31172,32498,3,9
46300,8.0400,-6.5910,-0.1440,-1.3340,0.6930,-1.5760,31178,32502,4,16
46320,8.1630,-7.1290,-0.1410,-1.2730,0.6340,-1.4170,31187,32507,4,16
46340,8.2240,-6.9850,0.0990,-1.3630,0.6190,-1.2980,31204,32523,4,16
46360,8.0190,-7.0370,-0.2960,-1.3900,0.5530,-1.1560,31216,32531,4,16
46380,7.8000,-6.2480,0.6760,-1.1060,0.4410,-0.9360,31216,32526,4,16
46401,7.9690,-6.6150,0.7760,-0.9210,0.3550,-0.8680,31207,32515,4,16
46421,8.3830,-7.0550,1.1320,-0.8700,0.2820,-0.8270,31196,32503,4,16
46441,8.9270,-7.1290,1.1850,-0.6270,0.2150,-0.8040,31177,32488,4,16
46461,9.8800,-7.1300,1.0310,-0.3580,0.1330,-0.7540,31164,32478,3,9
46481,11.3210,-7.5110,0.8330,-0.1020,0.0440,-0.7330,31152,32472,3,9
46501,12.2030,-7.8120,1.0640,0.2940,-0.0120,-0.7460,31145,32468,4,16
46521,12.2790,-7.8340,1.1940,0.5060,-0.0750,-0.6770,31143,32471,4,16
46541,11.4890,-7.2150,1.3360,0.5290,-0.1620,-0.5160,31148,32474,4,16
46561,10.8580,-6.5490,1.2350,0.5650,-0.2880,-0.2570,31145,32471,5,25
46581,9.8440,-6.0660,1.2820,0.8230,-0.4310,0.1600,31144,32471,5,25
46602,9.4250,-5.4420,1.5380,0.9460,-0.4870,0.4300,31150,32478,4,16
46622,9.3530,-4.6350,2.0040,1.2310,-0.5600,0.6720,31158,32479,4,16
46642,8.9290,-4.7840,1.9140,1.4760,-0.5900,0.8890,31161,32482,6,36
46662,9.0420,-4.5150,1.7780,1.4370,-0.6060,1.0890,31166,32486,5,25
46682,9.1300,-4.0040,1.6530,1.3880,-0.6090,1.2480,31164,32489,2,4
46702,9.1160,-3.6970,1.4740,1.3580,-0.5900,1.3630,31162,32486,4,16
46722,9.0030,-3.2200,1.3520,1.3920,-0.5170,1.4300,31157,32488,3,9
46742,8.9940,-2.9470,1.3230,1.4920,-0.4550,1.4890,31145,32484,3,9
46762,8.8030,-3.0260,1.2650,1.5330,-0.3290,1.5330,31139,32486,5,25
46784,9.0300,-3.0710,1.0530,1.3430,-0.2630,1.5100,31132,32485,4,16
46804,9.1410,-3.1770,0.8250,1.1750,-0.2260,1.4680,31118,32483,4,16
46824,8.9930,-3.1870,0.3720,0.9730,-0.2100,1.4330,31110,32473,3,9
46844,8.9120,-3.0720,0.4130,0.7860,-0.1930,1.3900,31097,32469,4,16
46864,8.9260,-3.3150,0.5180,0.7430,-0.1730,1.3130,31087,32460,3,9
46884,8.9870,-3.8880,0.4640,0.6020,-0.1690,1.2170,31081,32458,3,9
46904,8.8690,-4.0520,0.4380,0.3800,-0.2120,1.1050,31074,32455,3,9
46924,8.6260,-4.1320,0.5650,0.2140,-0.2840,1.0050,31064,32458,3,9
46944,8.7530,-4.0830,0.8190,0.2830,-0.3820,0.8140,31057,32450,3,9
46965,9.3820,-4.7860,0.8390,0.4540,-0.4420,0.6670,31052,32449,3,9
46985,10.2140,-5.1120,0.7780,0.5210,-0.5160,0.5150,31043,32446,4,16
47005,10.3800,-5.3090,0.9010,0.5100,-0.6440,0.4190,31035,32439,4,16
47025,10.9590,-5.8920,1.6230,0.6130,-0.7440,0.3770,31020,32437,4,16
47045,11.6130,-6.7850,1.8810,0.7250,-0.7710,0.2480,31009,32427,3,9
47065,12.1230,-7.6910,1.6860,0.7380,-0.7670,0.1010,30999,32429,4,16
47085,12.4290,-8.2030,1.8160,0.6810,-0.8100,-0.0030,30992,32419,5,25
47105,11.8350,-7.7120,2.2770,0.4800,-0.8900,0.0240,30988,32416,4,16
47125,11.0940,-7.1980,2.9980,0.4320,-0.9810,0.2400,30980,32416,4,16
47145,9.9630,-6.3140,3.7980,0.7720,-1.0550,0.6210,30973,32415,3,9
47166,9.2480,-6.3910,3.6380,0.9400,-0.9940,0.8200,30976,32418,3,9
47186,8.9520,-5.5100,3.4990,1.0700,-0.8420,0.9480,30984,32434,3,9
47206,7.8660,-4.4080,2.5700,1.0820,-0.6780,0.9750,31010,32450,3,9
47226,7.3890,-4.9280,1.5850,1.1220,-0.5330,0.9740,31020,32449,5,25
47246,7.4480,-6.2110,1.5470,1.1200,-0.4780,0.9480,31017,32434,3,9
47266,6.1160,-5.3290,1.7840,1.1260,-0.4440,0.7550,30998,32410,4,16
47286,5.6740,-4.8220,2.5570,1.3260,-0.3500,0.6750,30996,32394,5,25
47306,5.5470,-4.6020,2.9210,1.4640,-0.2090,0.5620,30994,32377,4,16
47326,5.0790,-4.8970,2.5750,1.4570,-0.0980,0.4230,30990,32377,3,9
47346,3.9000,-4.2280,2.0670,1.2800,-0.2020,0.2520,31002,32369,3,9
47367,3.4640,-4.2990,2.0710,1.0220,-0.3040,0.1330,31009,32364,3,9
47387,3.6930,-5.1030,2.8250,0.9110,-0.3250,-0.0100,31012,32353,3,9
47407,3.8330,-5.6610,3.3720,0.9220,-0.1910,-0.2340,31005,32331,3,9
47427,3.4440,-5.7860,3.3970,1.1540,-0.1080,-0.2800,30993,32307,4,16
47447,3.3410,-6.0990,3.0250,1.6970,-0.0590,-0.1030,31002,32298,4,16
47467,2.9520,-6.2800,1.6260,2.0070,-0.1870,0.2360,31003,32296,3,9
47487,2.1610,-6.5570,0.7100,1.8630,-0.4540,0.5640,31018,32302,3,9
47507,2.7100,-5.4220,3.6720,0.8750,-0.4020,0.6890,31031,32279,4,16
47527,4.2100,-7.1440,6.4140,-0.8360,0.0170,0.7820,31013,32262,3,9
47549,4.5290,-7.9000,4.9880,-0.7990,0.2520,0.9240,31004,32255,3,9
47569,4.5360,-8.4680,3.1960,-0.8220,0.3180,0.9690,30994,32259,2,4
47589,5.7820,-9.8220,2.4760,-0.6010,0.1910,0.9330,30983,32265,4,16
47609,7.0920,-11.0600,2.9420,-0.1560,0.0150,0.9630,30987,32266,4,16
47629,7.7900,-10.3630,3.4960,0.0320,-0.1570,1.0630,30990,32261,3,9
47649,7.1830,-8.8590,2.7660,-0.2530,-0.4750,1.0910,30982,32253,5,25
47669,7.2820,-7.8360,2.3430,-0.6770,-0.7440,1.0800,30985,32240,4,16
47689,7.4350,-7.1060,2.3950,-0.5050,-0.8630,0.9520,30990,32249,3,9
47709,8.0670,-6.7970,3.4260,-0.1350,-0.7740,0.6840,31002,32247,4,16
47730,7.9970,-5.9330,3.6390,0.3720,-0.5590,0.5060,30984,32251,5,25
47750,7.3350,-5.7630,2.9500,0.5730,-0.4150,0.4050,30994,32272,4,16
47770,6.2190,-5.5830,2.2860,0.5920,-0.2830,0.2790,31009,32295,3,9
47790,6.6010,-4.7320,1.1170,0.7260,-0.2070,0.0430,31034,32323,4,16
47810,6.6420,-4.6270,0.4780,0.9430,-0.2260,-0.2460,31073,32352,4,16
47830,6.9740,-4.3470,2.2060,1.5110,-0.0440,-0.3510,31097,32345,4,16
47850,7.5840,-4.4160,3.9400,1.5680,0.0460,-0.2720,31089,32353,4,16
47870,7.7520,-5.4430,3.7680,0.8510,0.0210,-0.2570,31095,32354,4,16
47890,7.2460,-5.9230,2.6010,-0.2370,-0.0720,-0.4070,31081,32351,4,16
47910,6.5230,-6.0880,2.2370,-1.0720,-0.1230,-0.6010,31057,32333,3,9
47931,6.4610,-6.5860,2.9680,-1.1400,0.0150,-0.6320,31042,32316,4,16
47951,6.6140,-6.9860,3.7070,-1.1320,0.2230,-0.6190,31030,32311,4,16
47971,6.9050,-7.1200,3.6440,-1.1080,0.4230,-0.6810,31022,32299,4,16
47991,7.1590,-7.2480,2.6950,-1.1970,0.4850,-0.7290,31008,32286,4,16
48011,7.3680,-7.3120,2.2400,-1.2900,0.4460,-0.7960,31002,32278,3,9
48031,7.8400,-7.3110,2.3880,-1.2220,0.3880,-0.8520,30993,32270,4,16
48051,8.4360,-7.2590,2.9950,-1.0620,0.4840,-0.8880,30992,32250,4,16
48071,8.6900,-7.5640,2.4430,-0.9380,0.5800,-1.0560,30978,32228,3,9
48091,8.5920,-7.8040,2.3220,-0.6710,0.5590,-1.2080,30968,32215,4,16
48111,8.9940,-8.4800,2.5500,-0.3620,0.5960,-1.3380,30956,32198,4,16
48132,8.8660,-7.3940,2.6790,-0.1540,0.6970,-1.3750,30948,32199,4,16
48152,9.2810,-8.1730,2.5190,-0.2180,0.8160,-1.2910,30954,32198,4,16
48172,9.2310,-8.3630,2.1640,-0.5710,0.8300,-1.1890,30946,32198,3,9
48192,8.4650,-8.0040,1.9190,-0.9460,0.7130,-0.9400,30951,32203,4,16
48212,7.2040,-6.9600,1.5920,-1.2550,0.5830,-0.6590,30955,32213,5,25
48232,5.8420,-5.8610,1.3120,-1.3860,0.4940,-0.4570,30961,32226,5,25
48252,5.2890,-4.9080,1.2560,-1.3140,0.5170,-0.3160,30973,32236,2,4
48272,4.9990,-4.5310,1.3580,-1.3250,0.6050,-0.2500,30973,32244,4,16
48292,4.5680,-4.4640,1.1110,-1.6720,0.6860,-0.2350,30975,32247,3,9
48312,4.0760,-2.5180,1.4650,-1.9090,0.8280,-0.3480,30980,32261,3,9
48333,4.3380,-2.5500,2.5220,-2.0060,0.9090,-0.3180,30978,32255,5,25
48353,4.8430,-3.7280,3.0530,-2.3400,1.0260,-0.3210,30965,32248,3,9
48373,4.8400,-4.0550,2.6130,-2.5670,1.0730,-0.3620,30948,32236,5,25
48393,4.9310,-4.5860,1.0250,-2.3850,1.0560,-0.4230,30929,32221,3,9
48413,4.9740,-5.2880,0.6900,-2.0000,0.9650,-0.4470,30917,32215,4,16
48433,5.0840,-5.0280,1.4080,-1.5930,0.8660,-0.5180,30900,32212,4,16
48453,5.5380,-5.1750,1.3060,-1.4020,0.7230,-0.5280,30886,32224,4,16
48473,5.9170,-5.1970,1.6540,-1.4560,0.5880,-0.6040,30870,32228,6,36
48493,6.8130,-6.2060,2.0460,-1.2390,0.4680,-0.7320,30842,32232,5,25
48514,7.1350,-6.3340,2.6670,-0.7340,0.4550,-0.8080,30831,32239,5,25
48534,7.3670,-5.8830,2.7170,-0.3480,0.4360,-0.8670,30824,32251,3,9
48554,7.7070,-5.7070,2.7330,-0.2560,0.3910,-0.8360,30830,32272,3,9
48574,8.2260,-6.1960,2.5510,-0.2200,0.3050,-0.7870,30834,32284,3,9
48594,8.9710,-7.4280,2.1660,-0.1300,0.2480,-0.7640,30849,32300,2,4
48614,9.7290,-7.9150,1.5710,-0.0370,0.2190,-0.8100,30861,32312,2,4
48634,10.2120,-7.7730,1.2960,-0.0390,0.2100,-0.9090,30868,32321,3,9
48654,10.4050,-7.4380,1.2520,-0.0320,0.1580,-0.9960,30871,32319,4,16
48674,10.2390,-7.5730,1.2230,-0.0110,0.1510,-1.0810,30869,32320,4,16
48694,9.9490,-7.1650,1.3360,-0.1130,0.1830,-1.1620,30870,32322,6,36
48715,9.2990,-6.2480,1.3360,-0.2150,0.1910,-1.1800,30882,32331,6,36
48735,9.3400,-5.9030,0.9170,-0.2060,0.1220,-1.1120,30898,32347,3,9
48755,10.1360,-5.9800,1.0430,-0.0880,0.0770,-1.0050,30908,32355,3,9
48775,10.1020,-5.6950,1.2860,0.0520,0.0700,-0.8440,30926,32367,3,9
48795,9.7500,-5.2330,1.6570,0.1140,0.0490,-0.6170,30942,32389,3,9
48815,9.2450,-5.2000,1.6260,0.0740,0.0210,-0.3690,30969,32411,3,9
48835,9.3490,-5.1560,1.8090,-0.0480,-0.0080,-0.1670,30986,32419,5,25
48855,9.4870,-4.9510,1.8360,-0.0460,-0.0260,-0.0640,30994,32423,3,9
48875,9.2010,-4.3190,1.5450,-0.0590,-0.0320,-0.0070,31005,32440,2,4
48895,8.5560,-3.5660,1.0240,0.0400,-0.1100,0.1230,31020,32449,4,16
48916,8.6710,-3.7680,1.1680,0.1430,-0.1400,0.2130,31030,32450,4,16
48936,8.6890,-3.7270,1.5050,0.2400,-0.1260,0.2490,31036,32449,4,16
48956,8.8320,-3.6480,1.6600,0.2960,-0.1030,0.2720,31040,32451,4,16
48976,9.0880,-3.4240,1.7720,0.2720,-0.0810,0.2730,31040,32447,4,16
48996,9.2560,-3.2910,1.8440,0.2150,-0.0600,0.2730,31040,32453,4,16
49016,9.3030,-3.1120,1.8150,0.1800,-0.0110,0.2950,31034,32447,4,16
49036,9.2940,-2.9350,1.6840,0.1460,0.0330,0.3130,31031,32450,4,16
49056,9.3160,-2.7530,1.6290,0.0690,0.0720,0.2990,31030,32450,4,16
49076,9.5460,-2.6730,1.7430,-0.0580,0.1040,0.2490,31024,32448,5,25
49096,10.0750,-2.7050,1.8160,-0.1260,0.1590,0.0760,31014,32435,5,25
49117,10.4930,-2.5770,1.7550,-0.0920,0.1970,-0.0930,31005,32428,4,16
49137,10.9920,-2.5870,1.6220,-0.0680,0.2480,-0.2640,30996,32423,4,16
49157,11.2710,-2.5740,1.5960,-0.0780,0.2980,-0.4480,30992,32417,3,9
49177,11.9820,-2.4580,1.5510,-0.1200,0.3280,-0.6140,30995,32420,4,16
49197,12.7770,-2.6300,1.4510,-0.2540,0.3590,-0.8280,30999,32417,4,16
49217,13.3300,-2.9160,1.3750,-0.4000,0.3910,-1.0870,30995,32416,4,16
49237,13.1430,-3.1530,1.5100,-0.5520,0.3820,-1.3420,30993,32415,4,16
49257,11.8680,-3.0110,2.0540,-0.6190,0.3350,-1.4520,30999,32412,3,9
49277,9.9230,-2.3060,3.1570,-0.3970,0.1750,-1.2100,31001,32425,4,16
49300,9.5530,-1.9630,3.3350,-0.1600,0.0650,-0.8490,31017,32438,4,16
49320,9.4520,-1.8440,2.9340,0.1220,0.0180,-0.4980,31034,32455,3,9
49340,9.2730,-1.9970,2.1320,0.3150,0.0090,-0.2670,31040,32464,3,9
49360,8.7100,-2.2490,1.4190,0.3290,0.0290,-0.1620,31048,32467,4,16
49380,7.9830,-2.4910,1.0560,0.2480,0.0560,-0.1470,31050,32457,4,16
49400,7.2450,-2.5950,1.0940,0.1450,0.0780,-0.1700,31039,32446,3,9
49420,6.6710,-2.2510,1.4130,0.0100,0.0980,-0.1650,31030,32440,3,9
49440,6.2500,-1.9870,1.7740,-0.2340,0.0890,-0.1080,31027,32434,7,49
49461,6.3230,-2.3070,1.7540,-0.3420,0.0440,-0.1260,31024,32427,5,25
49481,6.4630,-2.5280,2.0660,-0.3700,-0.0100,-0.2330,31018,32419,3,9
49501,6.6160,-2.6130,2.3430,-0.2860,-0.0580,-0.3880,31012,32405,3,9
49521,6.8800,-2.5870,2.6520,-0.1000,-0.1050,-0.5650,31000,32396,2,4
49541,7.1780,-2.5100,2.8310,0.1750,-0.1460,-0.7150,30992,32388,2,4
49561,7.4910,-2.6190,3.0330,0.5080,-0.1750,-0.8260,30985,32382,4,16
49581,7.8230,-2.8480,3.2250,0.8190,-0.2010,-0.8890,30979,32374,5,25
49601,8.0190,-2.9140,3.3970,1.0530,-0.2230,-0.8800,30976,32373,3,9
49621,8.3800,-2.6600,3.4500,1.2050,-0.2540,-0.7980,30980,32375,4,16
49641,9.6220,-2.7760,3.4610,1.3180,-0.2560,-0.6080,30988,32375,4,16
49662,10.7880,-3.2170,3.5330,1.2330,-0.2040,-0.5310,30991,32370,3,9
49682,12.0140,-3.5160,3.3450,1.0270,-0.1210,-0.4630,30993,32362,3,9
49702,14.1040,-3.6870,3.1450,0.6470,-0.0870,-0.3870,30997,32373,4,16
49722,15.2300,-4.1250,3.4080,0.2660,-0.0460,-0.3920,31021,32372,2,4
49742,14.7570,-4.4080,3.5110,-0.1020,0.0030,-0.4020,31030,32372,5,25
49762,12.3340,-3.7520,3.4210,-0.4920,0.0580,-0.1760,31034,32380,3,9
49782,10.2880,-2.5740,3.1440,-0.6970,0.0250,0.2500,31048,32402,3,9
49802,9.4870,-2.2760,2.8530,-0.7060,-0.0460,0.7400,31075,32418,5,25
49822,9.8950,-2.6260,2.8930,-0.4240,-0.0840,1.0650,31087,32418,3,9
49842,10.9220,-3.0670,3.1230,0.4870,0.0260,1.1820,31076,32416,3,9
49863,10.8470,-2.8080,2.9920,1.0280,0.1630,1.1600,31071,32413,4,16
49883,10.2850,-2.6180,2.4980,1.2480,0.2710,1.1670,31075,32421,3,9
49903,9.5400,-2.4830,2.1360,1.2010,0.3220,1.2120,31077,32428,3,9
49923,8.8730,-2.5210,1.8510,1.0220,0.3510,1.3040,31077,32420,4,16
49943,8.5170,-2.4530,1.6740,0.7040,0.3550,1.4170,31066,32421,3,9
49963,8.2970,-2.1320,1.7440,0.4000,0.3490,1.5190,31056,32417,3,9
49983,8.2940,-2.0150,1.7940,0.1930,0.3460,1.5770,31054,32422,3,9
50003,8.3370,-1.8770,1.7980,0.1120,0.3490,1.5510,31047,32418,4,16
50023,8.4310,-1.7060,1.9190,0.2620,0.3540,1.4690,31037,32417,3,9
50044,8.6040,-1.8700,1.9760,0.3940,0.3460,1.3850,31037,32411,4,16
50064,8.9230,-2.0410,2.1310,0.5020,0.3470,1.2620,31032,32420,3,9
50084,9.2140,-2.1310,2.2420,0.5760,0.3510,1.1180,31035,32426,3,9
50104,9.5430,-2.2120,2.2840,0.5840,0.3510,0.9610,31035,32433,3,9
50124,10.1230,-2.2670,2.2540,0.5320,0.3430,0.7770,31039,32433,3,9
50144,10.9850,-2.3380,2.3580,0.4910,0.3420,0.5490,31035,32432,3,9
50164,11.9090,-2.4460,2.3060,0.4200,0.3260,0.2570,31035,32433,3,9
50184,12.4080,-2.6350,2.5090,0.3010,0.2800,-0.0690,31036,32431,4,16
50204,12.4250,-2.7010,2.9040,0.1490,0.2210,-0.3580,31033,32431,3,9
50224,13.1710,-2.6660,3.1180,-0.1950,0.1070,-0.7480,31037,32436,4,16
50245,12.1640,-2.5180,2.8070,-0.3360,0.0980,-0.9870,31036,32432,3,9
50265,11.3770,-2.4480,2.6250,-0.4260,0.0220,-1.1080,31035,32432,4,16
50285,10.8010,-2.1120,2.5310,-0.5240,-0.0460,-1.1300,31037,32434,4,16
50305,10.8070,-2.0460,2.9400,-0.4860,-0.1260,-1.0930,31041,32436,3,9
50325,10.6630,-2.2790,3.3230,-0.3610,-0.1630,-1.0870,31044,32440,4,16
50345,10.1960,-2.2350,3.3670,-0.2640,-0.1440,-1.0080,31045,32445,4,16
50365,9.5180,-1.7500,3.0930,-0.2310,-0.1320,-0.8490,31050,32448,4,16
50385,8.9400,-1.4640,2.6890,-0.2430,-0.1340,-0.6430,31057,32459,4,16
50405,8.2370,-1.5510,2.3610,-0.2720,-0.1350,-0.4730,31062,32458,4,16
50425,7.2260,-1.9750,2.1450,-0.3550,-0.1260,-0.3730,31058,32453,2,4
50446,6.6480,-2.0230,2.0470,-0.4240,-0.1040,-0.3760,31059,32450,3,9
50466,6.1820,-1.9620,1.9810,-0.4650,-0.0790,-0.4120,31059,32448,3,9
50486,5.9900,-1.9130,1.9320,-0.4910,-0.0550,-0.4620,31056,32444,4,16
50506,5.8240,-1.9130,1.8890,-0.4990,-0.0360,-0.5200,31060,32442,4,16
50526,5.9390,-2.0120,1.9050,-0.4990,-0.0240,-0.5810,31054,32440,4,16
50546,6.1820,-2.1130,1.9940,-0.5110,-0.0150,-0.6460,31052,32439,2,4
50566,6.5520,-2.2160,2.0350,-0.5670,-0.0130,-0.7140,31051,32435,3,9
50586,7.0140,-2.1100,2.1540,-0.6530,-0.0260,-0.7830,31053,32429,3,9
50606,7.5200,-2.0600,2.1970,-0.7430,-0.0580,-0.8340,31050,32433,3,9
50626,8.3920,-2.3120,2.4440,-0.8820,-0.1150,-0.8940,31062,32437,5,25
50647,8.9000,-2.2880,2.8530,-0.9290,-0.1500,-0.9150,31066,32439,5,25
50667,9.2720,-2.3510,3.1340,-0.9470,-0.1920,-0.8860,31077,32440,3,9
50687,9.5840,-2.4790,3.3960,-0.9840,-0.2450,-0.8230,31084,32441,2,4
50707,10.2970,-2.6900,3.7970,-0.9500,-0.2880,-0.7190,31093,32447,3,9
50727,10.9890,-2.7460,4.0880,-0.8810,-0.2880,-0.6250,31097,32445,3,9
50747,11.4710,-2.8180,3.9440,-0.8570,-0.2660,-0.5510,31102,32451,3,9
50767,12.6870,-2.6340,3.7120,-0.8740,-0.2610,-0.4750,31114,32461,3,9
50787,14.1830,-2.8910,3.8190,-0.8770,-0.2730,-0.5050,31119,32465,3,9
50807,14.1430,-3.5090,4.3340,-0.6850,-0.1890,-0.6810,31133,32465,5,25
50828,12.8020,-3.0930,3.8810,-0.7030,-0.1120,-0.6250,31133,32467,4,16
50848,11.8060,-2.3420,3.4790,-0.6420,-0.0990,-0.3970,31133,32472,3,9
50868,10.7030,-2.2360,3.2190,-0.4470,-0.1060,-0.1210,31136,32468,4,16
50888,9.6950,-2.2090,3.1770,-0.2210,-0.1270,0.1630,31130,32473,4,16
50908,8.8000,-2.0790,3.0570,0.1250,-0.1350,0.4430,31126,32470,4,16
50928,8.0920,-2.1210,2.9470,0.5120,-0.1240,0.6050,31124,32469,2,4
50948,7.4890,-2.1930,2.7410,0.8840,-0.1040,0.7080,31118,32470,4,16
50968,7.2360,-2.2050,2.4430,1.1380,-0.0740,0.7700,31116,32462,4,16
50988,7.3380,-2.3320,2.1520,1.3340,-0.0390,0.7710,31114,32463,4,16
51008,8.0340,-2.5860,2.1440,1.5320,0.0480,0.7040,31107,32456,4,16
51029,8.4360,-2.5260,2.1610,1.5880,0.1520,0.6430,31105,32453,5,25
51049,8.6420,-2.3920,2.1180,1.5570,0.2700,0.6080,31107,32458,5,25
51069,8.7340,-2.5030,1.8270,1.3740,0.3840,0.6320,31113,32459,4,16
51089,8.8900,-2.5940,1.6350,1.0810,0.4560,0.6800,31117,32463,5,25
51109,9.0200,-2.5220,1.5450,0.7260,0.5000,0.7350,31124,32468,3,9
51129,9.1210,-2.2970,1.6580,0.3150,0.5160,0.8060,31128,32468,3,9
51149,9.1890,-2.1080,1.7510,-0.0590,0.5060,0.8770,31132,32475,5,25
51169,9.2460,-2.0420,1.8230,-0.3280,0.4900,0.9220,31135,32479,4,16
51189,9.2730,-1.9000,1.9630,-0.4790,0.4740,0.9280,31133,32479,3,9
51209,9.6370,-1.6860,2.1450,-0.4820,0.4200,0.8640,31125,32476,4,16
51230,10.0890,-1.5680,2.4210,-0.3910,0.3860,0.7740,31121,32474,4,16
51250,10.6720,-1.5600,2.6800,-0.2630,0.3640,0.6560,31115,32474,3,9
51270,11.3160,-1.6520,2.7560,-0.1260,0.3480,0.4980,31116,32468,3,9
51290,11.8230,-1.6330,2.7380,-0.0270,0.3390,0.3270,31109,32470,3,9
51310,11.6710,-1.4800,2.7310,-0.0030,0.3050,0.1570,31107,32466,4,16
51330,11.2160,-1.2080,2.7710,-0.0060,0.2500,0.0670,31099,32470,3,9
51350,12.1190,-1.1680,2.6830,-0.0710,0.1760,0.0100,31097,32468,3,9
51370,12.2480,-1.4750,2.5520,-0.1250,0.1680,-0.1530,31090,32462,3,9
51390,11.9080,-1.7300,2.5890,-0.1610,0.1350,-0.3180,31082,32456,3,9
51410,10.3570,-1.3040,2.5310,-0.3630,0.0800,-0.4000,31074,32451,4,16
51431,9.5860,-1.0400,2.5080,-0.4440,-0.0180,-0.3480,31070,32446,2,4
51451,9.1390,-1.0630,2.8100,-0.3710,-0.0940,-0.2490,31063,32441,3,9
51471,8.9610,-1.0940,2.9320,-0.2050,-0.1400,-0.1380,31062,32439,5,25
51491,8.7600,-1.1060,2.8740,-0.0100,-0.1590,-0.0850,31061,32435,4,16
51511,8.3940,-1.2960,2.6040,0.0780,-0.1760,-0.1070,31060,32439,3,9
51531,7.7200,-1.5280,2.4500,0.0620,-0.2100,-0.1950,31056,32434,4,16
51551,7.1070,-1.7450,2.3310,-0.0450,-0.2520,-0.2910,31049,32429,4,16
51571,6.6550,-1.7360,2.2330,-0.1500,-0.2820,-0.3800,31040,32420,3,9
51591,6.3900,-1.6110,2.3680,-0.1340,-0.3060,-0.5080,31027,32409,4,16
51612,6.5010,-1.7930,2.6650,-0.0420,-0.3190,-0.6000,31024,32400,2,4
51632,6.6590,-2.0720,2.9800,0.0370,-0.3250,-0.6920,31012,32394,3,9
51652,6.9780,-2.3240,3.2570,0.1070,-0.3130,-0.7940,31010,32389,3,9
51672,7.3450,-2.2820,3.2800,0.1200,-0.3010,-0.8950,31007,32382,4,16
51692,7.8210,-2.2480,3.3030,0.0950,-0.2940,-0.9840,31008,32378,4,16
51712,8.2030,-2.2980,3.3870,0.0340,-0.2840,-1.0530,31001,32369,4,16
51732,8.4120,-2.3080,3.3970,-0.0680,-0.2660,-1.0680,30998,32368,4,16
51752,8.5960,-2.2800,3.4550,-0.1740,-0.2610,-1.0210,30999,32364,3,9
51772,8.9240,-2.3810,3.5480,-0.2610,-0.2540,-0.9130,31001,32363,4,16
51792,9.9950,-2.6890,3.7710,-0.2910,-0.2400,-0.7350,31006,32365,4,16
51813,10.8000,-2.8740,3.7590,-0.2630,-0.2120,-0.6500,31012,32362,3,9
51833,12.2710,-2.9580,3.6330,-0.2590,-0.2080,-0.5710,31021,32370,4,16
51853,14.5270,-3.4700,3.8680,-0.2860,-0.2180,-0.5790,31039,32383,5,25
51873,16.0060,-3.9960,4.5360,-0.2720,-0.1930,-0.6980,31061,32393,4,16
51893,15.4000,-4.1680,4.6690,-0.3160,-0.0940,-0.7200,31073,32398,4,16
51913,13.7220,-3.5490,4.2800,-0.3980,0.0040,-0.4980,31081,32407,4,16
51933,11.5470,-2.7870,3.6600,-0.4000,0.0640,-0.0770,31092,32417,3,9
51953,9.9460,-2.3330,3.0780,-0.3020,0.0850,0.4710,31105,32424,4,16
51973,9.0410,-2.1740,2.6550,-0.1500,0.0970,0.9970,31103,32428,3,9
51993,8.3790,-2.2590,2.4330,0.1800,0.1180,1.4980,31095,32428,4,16
52014,8.2710,-2.2690,2.5510,0.4230,0.1250,1.6290,31090,32427,6,36
52034,8.4890,-2.0880,2.7990,0.6760,0.1340,1.6590,31086,32421,3,9
52054,8.7640,-1.9690,2.8950,0.9050,0.1640,1.6150,31075,32422,5,25
52074,9.0310,-1.9290,2.7840,1.0900,0.2230,1.5320,31076,32420,4,16
52094,9.0760,-1.9540,2.5950,1.2430,0.3140,1.4340,31072,32421,4,16
52114,8.9410,-1.8970,2.2580,1.3010,0.4100,1.3570,31072,32427,4,16
52134,8.7520,-1.7550,2.0230,1.2540,0.4990,1.2820,31070,32433,4,16
52154,8.6990,-1.7250,1.8340,1.0940,0.5560,1.2200,31071,32430,4,16
52174,8.6780,-1.7080,1.8160,0.8500,0.5870,1.1330,31067,32428,5,25
52194,8.8970,-1.8460,1.8320,0.4570,0.5900,0.9730,31065,32427,4,16
52215,8.9150,-1.8420,1.8150,0.2500,0.6010,0.8520,31058,32420,3,9
52235,8.7600,-1.6500,1.7010,0.0800,0.6020,0.7500,31049,32418,3,9
52255,8.4650,-1.5190,1.6120,-0.0520,0.5870,0.6760,31047,32413,3,9
52275,8.2770,-1.4190,1.5650,-0.1680,0.5400,0.6200,31041,32414,3,9
52295,8.2910,-1.4130,1.6780,-0.2580,0.4660,0.5540,31038,32415,4,16
52315,8.5070,-1.4410,1.9090,-0.2950,0.3850,0.4540,31035,32412,4,16
52335,8.8660,-1.4990,2.1950,-0.2210,0.3080,0.2910,31037,32411,3,9
52355,9.3770,-1.5110,2.3480,-0.0640,0.2510,0.0950,31030,32408,4,16
52375,9.9370,-1.5140,2.3040,0.0920,0.1830,-0.2300,31028,32407,3,9
52396,10.3640,-1.5170,2.3250,0.0900,0.0950,-0.4420,31024,32404,3,9
52416,11.7950,-1.7430,2.3770,-0.0310,-0.0180,-0.6670,31024,32409,3,9
52436,12.7770,-2.0410,2.5010,-0.2040,-0.1040,-1.0220,31022,32405,4,16
52456,13.1800,-2.3860,2.7110,-0.4260,-0.2090,-1.3920,31015,32398,5,25
52476,12.6370,-2.2640,3.1390,-0.6550,-0.3270,-1.6480,31005,32388,4,16
52496,11.3310,-1.8930,3.6080,-0.7540,-0.4560,-1.6990,30997,32375,4,16
52516,10.1440,-1.4580,4.1800,-0.6750,-0.5920,-1.5460,30994,32375,4,16
52536,9.6040,-1.1580,4.5660,-0.3170,-0.6720,-1.2250,30997,32377,5,25
52556,9.5340,-1.1650,4.3830,0.3140,-0.6490,-0.8400,31000,32379,3,9
52576,9.2880,-1.5040,3.3050,0.9740,-0.5110,-0.4340,31002,32382,3,9
52597,8.7530,-1.6930,2.7010,1.0580,-0.4130,-0.2720,31010,32383,4,16
52617,8.1250,-1.9940,2.3320,0.7690,-0.3610,-0.1660,31008,32379,2,4
52637,7.4230,-2.1120,2.2840,0.1970,-0.3550,-0.1190,31009,32378,4,16
52657,6.9850,-2.0730,2.3440,-0.3450,-0.3700,-0.1060,31005,32381,3,9
52677,6.6610,-2.0300,2.4010,-0.7830,-0.3740,-0.1490,31002,32371,4,16
52697,6.5710,-1.9850,2.6440,-0.9830,-0.3710,-0.2300,30993,32368,3,9
52717,6.6400,-2.0460,2.8480,-0.9650,-0.3580,-0.3340,30989,32358,4,16
52737,6.8510,-2.1180,3.0410,-0.7900,-0.3440,-0.4590,30980,32354,3,9
52757,7.2070,-2.1880,3.1620,-0.5600,-0.3250,-0.5830,30976,32344,4,16
52777,7.8190,-2.3220,3.4270,-0.2390,-0.3090,-0.7290,30966,32339,3,9
52798,8.0910,-2.3480,3.6930,-0.1200,-0.3120,-0.7670,30966,32337,5,25
52818,8.2830,-2.2850,3.9010,-0.0470,-0.3160,-0.7410,30967,32336,4,16
52838,8.3630,-2.2550,4.0160,-0.0020,-0.3050,-0.6470,30971,32336,4,16
52858,8.4660,-2.2270,4.1660,0.0360,-0.2770,-0.4990,30975,32335,3,9
52878,8.7450,-2.2340,4.1410,0.0560,-0.2240,-0.3490,30978,32341,4,16
52898,9.3230,-2.3320,4.0270,0.0180,-0.1550,-0.2340,30978,32338,2,4
52918,10.2220,-2.4920,4.0190,-0.0590,-0.0770,-0.1720,30985,32339,2,4
52938,11.1390,-2.7190,4.0220,-0.1720,0.0140,-0.1670,30991,32340,4,16
52958,11.8610,-2.7320,3.8390,-0.3670,0.0930,-0.1800,30998,32348,4,16
52978,15.0800,-2.9040,3.8770,-0.7750,0.1220,-0.2240,31027,32365,2,4
52999,15.5350,-3.4280,4.4020,-0.9360,0.1570,-0.3920,31044,32374,3,9
53019,13.7390,-3.2640,4.3790,-1.1160,0.2030,-0.4200,31049,32375,4,16
53039,11.5860,-2.3820,3.8910,-1.2110,0.1710,-0.1710,31064,32391,4,16
53059,10.3190,-1.7540,3.7360,-1.0020,0.0550,0.1850,31082,32404,4,16
53079,9.7100,-1.9720,4.0170,-0.4700,-0.0170,0.5330,31082,32395,3,9
53099,9.7030,-2.1330,4.1710,0.3620,0.0060,0.8130,31064,32387,4,16
53119,9.5170,-2.0290,3.9980,1.2090,0.0810,0.9920,31046,32377,5,25
53139,9.0170,-1.9570,3.4610,1.8210,0.1870,1.1190,31039,32377,6,36
53159,8.4950,-2.0220,2.5090,2.1360,0.3090,1.2660,31035,32375,4,16
53180,8.5880,-2.1720,2.2000,1.9890,0.3820,1.3060,31032,32377,4,16
53200,8.6590,-2.3200,2.0410,1.6580,0.4630,1.2840,31033,32375,3,9
53220,8.7540,-2.1840,1.8910,1.2090,0.5440,1.2410,31027,32376,4,16
53240,8.8170,-1.7960,1.7710,0.7620,0.6170,1.2000,31027,32379,4,16
53260,8.7400,-1.6410,1.7140,0.3600,0.6830,1.1620,31026,32380,4,16
53280,8.5770,-1.6080,1.6410,0.0190,0.7260,1.1280,31019,32378,4,16
53300,8.3570,-1.5480,1.5410,-0.2670,0.7380,1.0880,31016,32380,4,16
53320,8.2500,-1.4650,1.4450,-0.5080,0.7110,1.0470,31011,32376,4,16
53340,8.2850,-1.3970,1.4530,-0.7000,0.6460,0.9840,31009,32376,4,16
53360,8.2900,-1.4680,1.4740,-0.8220,0.5320,0.8280,31000,32373,3,9
53381,8.2400,-1.4710,1.5200,-0.8240,0.4370,0.6610,30995,32369,4,16
53401,8.2530,-1.3930,1.6340,-0.7740,0.3210,0.4500,30992,32371,5,25
53421,8.4810,-1.3980,1.8530,-0.6520,0.1990,0.2260,30985,32369,3,9
53441,8.7760,-1.4430,2.1000,-0.4320,0.0890,-0.0310,30981,32372,5,25
53461,9.2510,-1.5490,2.3150,-0.1950,-0.0050,-0.2920,30978,32371,3,9
53481,9.8840,-1.5780,2.4580,0.0530,-0.0870,-0.5390,30976,32371,3,9
53501,10.7040,-1.3000,2.5670,0.2800,-0.1640,-0.7460,30979,32369,3,9
53521,12.5710,-1.2410,2.6100,0.3850,-0.2700,-0.9350,30977,32373,4,16
53541,13.6640,-1.5830,2.7860,0.4170,-0.3590,-1.2180,30978,32372,4,16
53561,13.6040,-2.2030,3.2070,0.1610,-0.5980,-1.6410,30968,32354,3,9
53582,11.7760,-1.7930,4.0270,-0.0140,-0.7740,-1.7010,30961,32350,3,9
53602,10.1350,-1.2050,4.8900,0.0550,-0.9300,-1.4880,30956,32348,3,9
53622,9.6070,-0.8910,5.3340,0.4270,-1.0010,-1.1080,30958,32349,3,9
53642,10.0930,-0.9620,5.1190,1.1060,-0.9130,-0.6990,30961,32359,4,16
53662,10.6760,-1.2270,4.3050,1.5690,-0.6880,-0.4440,30981,32380,3,9
53682,10.6540,-1.1180,3.2540,1.6140,-0.4130,-0.3590,30999,32397,4,16
53702,10.2210,-1.1580,2.4730,1.2040,-0.2490,-0.3340,31023,32410,4,16
53722,9.3580,-1.3790,2.3160,0.5090,-0.2290,-0.3060,31030,32408,5,25
53742,8.2820,-1.5410,2.6440,-0.1860,-0.2600,-0.2340,31025,32398,5,25
53762,6.8030,-1.3200,3.0660,-1.0480,-0.2720,-0.0540,30995,32379,3,9
53783,6.1530,-1.1440,3.1330,-1.2900,-0.2600,0.0310,30989,32368,3,9
53803,5.7740,-1.2140,3.1090,-1.2400,-0.2500,0.0720,30981,32363,2,4
53823,5.5350,-1.3720,3.0010,-0.9830,-0.2260,0.0550,30970,32353,3,9
53843,5.4840,-1.5750,2.9130,-0.6520,-0.1970,0.0010,30964,32344,5,25
53863,5.4520,-1.7540,2.8990,-0.3670,-0.1670,-0.0950,30958,32346,3,9
53883,5.5190,-2.0060,2.8720,-0.2150,-0.1470,-0.2030,30948,32338,3,9
53903,5.6110,-2.0950,2.8790,-0.1740,-0.1340,-0.3140,30943,32334,2,4
53923,5.7470,-1.9640,3.0740,-0.2040,-0.1200,-0.3780,30940,32334,4,16
53943,6.0170,-1.9050,3.2320,-0.2980,-0.0760,-0.3890,30937,32334,3,9
53963,6.7560,-2.2070,3.2840,-0.5740,0.0030,-0.3800,30938,32328,4,16
53984,7.4340,-2.3740,3.3830,-0.7450,0.0460,-0.3630,30937,32323,4,16
54004,8.1760,-2.5690,3.5060,-0.8790,0.0990,-0.3290,30933,32315,4,16
54024,8.8740,-2.7610,3.5820,-0.9970,0.1470,-0.2800,30929,32310,4,16
54044,9.4860,-2.9220,3.7220,-1.0830,0.1780,-0.2040,30935,32308,4,16
54064,9.9830,-3.1020,3.9000,-1.1220,0.1880,-0.1000,30939,32306,5,25
54084,10.0740,-3.2700,4.0280,-1.1260,0.2010,0.0360,30941,32307,3,9
54104,9.7770,-3.4300,3.9240,-1.1290,0.2140,0.2220,30946,32311,4,16
54124,9.3210,-3.2910,3.6920,-1.1350,0.2080,0.4440,30949,32317,3,9
54144,10.1420,-2.9160,3.5750,-1.1160,0.1580,0.8390,30950,32315,4,16
54165,14.7490,-3.2170,4.3160,-1.1140,0.0430,1.0180,30953,32325,5,25
54185,17.9180,-4.8660,6.5950,-0.8950,0.0790,0.8030,30964,32326,3,9
54205,17.9730,-5.5680,6.0370,-0.7690,0.3730,0.4260,30981,32367,4,16
54225,15.8390,-3.8640,4.1910,-1.0520,0.4990,0.4270,31042,32437,3,9
54245,14.8280,-2.6180,3.2670,-0.9580,0.3230,0.7380,31101,32472,4,16
54265,14.5780,-3.4750,3.7370,-0.4030,0.1530,0.9060,31109,32457,4,16
54285,13.7480,-4.0350,4.6470,0.2300,0.1280,0.9580,31090,32437,3,9
54305,12.3490,-3.5920,4.5750,0.7060,0.1640,1.0090,31071,32424,3,9
54325,10.6270,-2.9360,3.4270,1.0310,0.2110,1.0450,31054,32429,4,16
54345,8.3650,-2.8970,1.8540,1.1650,0.2040,1.0660,31050,32433,3,9
54366,7.1790,-2.9350,1.4580,1.1260,0.1590,1.0210,31054,32434,3,9
54386,6.2660,-2.8630,1.3360,1.0480,0.1150,0.9510,31051,32437,4,16
54406,5.7480,-2.6650,1.5770,0.9680,0.0820,0.8660,31049,32432,3,9
54426,5.7130,-2.5580,1.7610,0.9150,0.0850,0.7750,31041,32427,4,16
54446,6.0000,-2.3770,1.7300,0.8910,0.1360,0.6610,31030,32433,3,9
54466,6.2970,-2.3030,1.5530,0.8440,0.2150,0.5460,31032,32434,3,9
54486,6.7820,-2.0970,1.3770,0.7410,0.3100,0.4470,31030,32440,4,16
54506,7.2320,-1.7990,1.2380,0.5520,0.3920,0.3510,31031,32440,4,16
54526,7.8900,-1.5850,1.2700,0.3060,0.4510,0.2560,31028,32435,4,16
54546,9.4610,-1.5050,1.5920,-0.0700,0.5170,0.0560,31014,32423,3,9
54567,10.4480,-1.5350,1.7670,-0.2870,0.5620,-0.1270,31002,32414,3,9
54587,11.0490,-1.6210,1.7530,-0.4740,0.6010,-0.3300,30991,32405,4,16
54607,11.7180,-1.5560,1.7130,-0.6880,0.5820,-0.5310,30985,32398,4,16
54627,12.6690,-1.5130,1.4470,-1.0050,0.4980,-0.7580,30981,32396,3,9
54647,13.0880,-2.0170,1.6050,-1.5390,0.3710,-1.0610,30980,32398,4,16
54667,12.6690,-2.6700,2.4470,-2.2030,0.2110,-1.3440,30984,32408,3,9
54687,12.0180,-2.5630,3.4990,-2.6560,0.0250,-1.5150,30994,32421,2,4
54707,11.6190,-1.9320,4.2170,-2.7210,-0.0930,-1.4840,31018,32434,4,16
54727,11.4040,-1.2140,4.3130,-2.3790,-0.1670,-1.3000,31032,32440,5,25
54747,10.7850,-1.4170,3.8210,-1.3530,-0.2070,-1.0070,31014,32423,4,16
54768,10.0690,-2.0690,3.4780,-0.7810,-0.1920,-0.8900,31007,32413,3,9
54788,8.8610,-2.5590,3.2080,-0.3370,-0.1830,-0.8400,31001,32406,4,16
54808,7.4690,-2.7570,3.0630,-0.1630,-0.2160,-0.8110,31002,32413,4,16
54828,6.2880,-2.6040,2.9350,-0.1550,-0.2740,-0.7320,31011,32423,3,9
54848,5.5020,-2.4580,2.7020,-0.1540,-0.3090,-0.6270,31025,32431,4,16
54868,5.1510,-2.5260,2.6120,-0.1040,-0.3260,-0.5510,31033,32432,4,16
54888,5.1040,-2.6930,2.4960,-0.0200,-0.3110,-0.5310,31024,32428,4,16
54908,5.1650,-2.8660,2.4100,0.0410,-0.2740,-0.5590,31012,32410,4,16
54928,5.5220,-3.0790,2.3820,0.0880,-0.2280,-0.6550,31000,32399,5,25
54949,6.0020,-3.1330,2.6560,0.1440,-0.1990,-0.7310,30991,32389,4,16
54969,6.6260,-3.2500,3.0130,0.1790,-0.1650,-0.8040,30973,32378,3,9
54989,7.4690,-3.3770,3.2690,0.1780,-0.1230,-0.8510,30967,32369,4,16
55009,8.4970,-3.4090,3.2390,0.1010,-0.0840,-0.8560,30960,32367,3,9
55029,9.8930,-3.5170,3.2330,-0.1260,-0.0620,-0.8280,30963,32366,3,9
55049,11.4510,-3.7110,3.2940,-0.3700,-0.0540,-0.7750,30963,32364,3,9
55069,12.8830,-3.9300,3.4740,-0.5200,-0.0460,-0.7030,30965,32362,4,16
55089,13.3260,-3.7610,3.6870,-0.6230,-0.0370,-0.5820,30973,32369,4,16
55109,12.6810,-3.3810,3.7880,-0.6550,-0.0850,-0.3540,30983,32371,3,9
55129,11.8520,-3.2820,3.9290,-0.7310,-0.2880,0.0410,30980,32359,3,9
55150,12.1090,-3.8820,4.2880,-0.6310,-0.3770,0.1920,30968,32343,3,9
55170,11.3170,-4.3340,4.1080,-0.3140,-0.3310,0.2010,30950,32333,4,16
55190,9.5110,-3.9000,3.0860,-0.0340,-0.3020,0.2040,30945,32341,3,9
55210,7.8000,-2.9230,2.4830,0.2330,-0.3400,0.3580,30951,32344,5,25
55230,7.3850,-2.6960,2.2690,0.5110,-0.4350,0.5780,30950,32341,2,4
55250,8.5860,-3.2630,2.1840,0.9050,-0.5160,0.7190,30942,32324,4,16
55270,10.9040,-3.9040,2.2600,1.4920,-0.5080,0.7580,30913,32298,3,9
55290,12.5770,-5.0840,2.1760,1.7590,-0.3380,0.8290,30895,32281,7,49
55310,12.6090,-5.6180,1.3680,1.3270,-0.1910,1.0110,30876,32279,3,9
55330,10.5490,-5.5550,-0.5490,0.1770,-0.1410,1.4290,30866,32300,2,4
55351,9.7800,-3.9060,-0.9660,-0.4160,-0.2600,1.9510,30903,32355,4,16
55371,10.5030,-2.0640,-0.5970,-0.7550,-0.3950,2.6050,30956,32396,5,25
55391,11.7630,-1.1890,-0.0490,-0.6760,-0.4090,3.1200,30979,32409,4,16
55411,13.1510,-0.3340,0.6010,-0.3530,-0.2350,3.3200,30982,32412,5,25
55431,13.7450,0.0310,0.6450,-0.0910,0.0080,3.3140,30966,32412,3,9
55451,13.8550,-0.3940,-0.4560,-0.2000,0.1660,3.1800,30973,32429,4,16
55471,13.1800,-0.3540,-1.2330,-0.5520,0.2450,2.9440,30999,32459,5,25
55491,12.0330,-0.3340,-1.1360,-0.9330,0.2100,2.6840,31023,32474,5,25
55511,11.0480,-0.3180,-0.2020,-1.1120,0.1280,2.4500,31020,32477,3,9
55531,11.3500,-0.3770,2.5680,-0.9210,0.0860,2.0780,31010,32468,4,16
55552,11.6830,-0.2540,2.2040,-0.5490,0.2150,1.7330,31003,32466,3,9
55572,11.7500,-0.4120,1.5690,-0.3240,0.3030,1.2120,31005,32465,4,16
55592,11.4870,-1.2930,1.6620,-0.0050,0.3020,0.4870,30996,32439,2,4
55612,11.3560,-2.7660,1.7440,0.2620,0.3660,-0.2500,30963,32424,5,25
55632,10.5930,-3.7170,1.9390,0.1550,0.3150,-1.0390,30949,32410,3,9
55652,9.2700,-3.4300,2.8740,-0.1870,0.1790,-1.7280,30936,32410,3,9
55672,8.4460,-3.0320,3.5950,-0.4510,0.0480,-2.1260,30933,32404,3,9
55692,7.6810,-2.9420,3.7170,-0.5130,-0.0620,-2.4030,30922,32391,6,36
55712,6.7120,-3.2090,3.7670,-0.0450,-0.0620,-2.7580,30895,32364,4,16
55733,6.5280,-3.6000,3.6370,0.3770,0.0310,-3.0440,30882,32352,3,9
55753,6.9070,-4.2430,3.0570,0.6810,0.1980,-3.2910,30869,32333,5,25
55773,7.4790,-4.4380,2.5690,0.9170,0.3600,-3.4800,30860,32328,3,9
55793,7.7940,-4.1660,2.6830,0.9320,0.4430,-3.5870,30858,32326,3,9
55813,8.0650,-3.9070,2.9470,0.7510,0.4810,-3.5620,30861,32318,5,25
55833,8.3890,-4.0530,3.2680,0.4820,0.5450,-3.4240,30858,32311,5,25
55853,8.6050,-4.1930,3.2000,0.1910,0.6360,-3.2130,30858,32304,3,9
55873,8.5150,-4.2250,2.8740,-0.1000,0.7470,-2.9310,30858,32300,4,16
55893,8.4120,-4.2380,2.4250,-0.4820,0.8090,-2.5440,30861,32300,3,9
55913,8.7240,-4.0750,2.2160,-1.1260,0.7800,-1.8990,30886,32310,3,9
55934,9.1780,-3.9840,2.2550,-1.4660,0.7250,-1.4690,30893,32308,3,9
55954,9.8020,-4.0740,2.1780,-1.7190,0.6540,-1.1030,30894,32301,3,9
55974,10.4550,-4.1610,2.1210,-1.7680,0.5590,-0.8620,30889,32295,3,9
55994,10.9100,-4.2870,2.2410,-1.6520,0.4640,-0.7260,30878,32284,3,9
56014,10.9930,-4.2640,2.2920,-1.4360,0.3680,-0.6540,30872,32279,3,9
56034,10.7200,-4.0470,2.2650,-1.2210,0.2470,-0.5900,30864,32275,4,16
56054,11.1170,-4.0440,2.0870,-0.9980,0.0790,-0.4920,30859,32271,4,16
56074,11.7840,-4.5000,2.2850,-0.6790,-0.0650,-0.4420,30853,32260,4,16
56094,12.4220,-4.8650,2.4940,-0.2640,-0.1420,-0.4140,30845,32259,4,16
56114,14.3940,-5.2540,3.0850,0.4900,-0.1780,-0.1960,30852,32259,4,16
56135,13.6410,-5.1380,3.0470,1.0660,-0.0910,0.0870,30861,32273,3,9
56155,12.2210,-4.0860,2.1010,1.2080,-0.0830,0.6470,30882,32292,2,4
56175,11.0900,-2.6000,1.7190,1.1360,-0.1950,1.4380,30901,32312,3,9
56195,10.4640,-2.8350,1.8510,1.0700,-0.3180,2.1880,30912,32315,3,9
56215,10.4160,-3.1740,2.1450,0.8400,-0.3890,2.6610,30911,32316,4,16
56235,10.5790,-2.6640,2.4620,0.6330,-0.4400,2.9520,30909,32317,3,9
56255,10.5520,-2.0230,2.6680,0.5610,-0.4950,3.1290,30907,32319,7,49
56275,10.3750,-1.7440,2.7450,0.6340,-0.5290,3.2000,30904,32320,3,9
56295,10.1370,-1.8290,2.9080,0.8450,-0.5110,3.1880,30900,32317,3,9
56315,9.5270,-1.9120,2.7930,1.2900,-0.3780,3.0180,30894,32319,5,25
56337,9.1480,-1.8200,2.4190,1.5160,-0.2430,2.8510,30894,32321,4,16
56357,8.8510,-1.6930,1.9990,1.6400,-0.1050,2.6440,30893,32330,4,16
56377,8.6480,-1.6880,1.7080,1.6130,0.0300,2.3950,30903,32335,3,9
56397,8.4670,-1.8350,1.4860,1.4720,0.1410,2.1000,30900,32332,3,9
56417,8.2890,-1.8940,1.3680,1.2510,0.2400,1.7710,30903,32336,4,16
56437,8.0920,-1.7870,1.4040,0.9720,0.3270,1.4270,30898,32336,3,9
56457,7.9800,-1.5630,1.4740,0.6930,0.3780,1.1160,30895,32338,4,16
56477,8.1690,-1.3600,1.6050,0.4000,0.4370,0.7030,30891,32330,4,16
56498,8.7480,-1.4770,1.6830,0.3150,0.4890,0.4210,30883,32328,3,9
56518,9.4890,-1.5740,1.6040,0.2700,0.5580,0.1280,30878,32325,4,16
56538,10.1070,-1.4820,1.4580,0.1570,0.5950,-0.1530,30872,32323,3,9
56558,10.1980,-1.3710,1.3290,-0.0610,0.5790,-0.4120,30871,32324,4,16
56578,10.0420,-1.4710,1.7080,-0.3190,0.4920,-0.6340,30866,32315,2,4
56598,10.3860,-1.7630,2.0220,-0.5280,0.3790,-0.8540,30847,32301,4,16
56618,11.4020,-1.9000,2.1050,-0.6880,0.2870,-1.1290,30835,32291,2,4
56638,12.8370,-1.9930,1.9900,-0.7390,0.1940,-1.4740,30821,32280,4,16
56658,13.0720,-2.2350,2.0210,-0.7090,0.0980,-1.8760,30814,32271,3,9
56678,11.1830,-2.3300,3.2250,-0.6400,-0.1570,-2.1790,30798,32266,3,9
56699,10.2220,-1.7550,4.3190,-0.5410,-0.3860,-2.0480,30805,32272,4,16
56719,9.8320,-1.1470,4.7380,-0.2840,-0.5750,-1.7280,30812,32273,3,9
56739,9.4980,-1.0300,4.3550,0.2040,-0.7080,-1.3860,30817,32283,4,16
56759,8.9440,-1.4230,3.6830,0.6440,-0.7330,-1.1130,30819,32284,5,25
56779,8.0670,-2.0580,3.1300,0.9100,-0.6910,-0.9620,30828,32280,4,16
56799,7.0700,-2.6220,2.6170,0.8910,-0.6320,-0.9450,30824,32271,3,9
56819,6.2790,-2.8540,2.2630,0.5990,-0.5690,-0.9940,30816,32265,5,25
56839,5.7800,-2.8130,2.0700,0.1840,-0.5050,-1.0620,30810,32255,3,9
56859,5.6630,-2.6960,2.1160,-0.2100,-0.4530,-1.1500,30804,32249,5,25
56879,6.0030,-2.7710,2.5090,-0.6310,-0.3540,-1.2940,30793,32228,3,9
56900,6.4610,-2.9820,2.8610,-0.7650,-0.2720,-1.3850,30781,32211,4,16
56920,7.2230,-3.2180,3.0980,-0.8240,-0.1900,-1.4730,30771,32197,3,9
56940,8.0220,-3.3510,3.1450,-0.8480,-0.1300,-1.5360,30765,32189,4,16
56960,8.8290,-3.3960,3.3260,-0.8810,-0.1060,-1.5320,30766,32192,4,16
56980,9.5160,-3.3750,3.6250,-0.9120,-0.1240,-1.4070,30778,32201,4,16
57000,9.9310,-3.2390,3.9470,-0.9050,-0.1690,-1.2050,30786,32207,5,25
57020,10.3670,-3.0900,4.2470,-0.8360,-0.2510,-0.9240,30797,32210,4,16
57040,10.8250,-3.1020,4.6120,-0.6550,-0.3290,-0.6140,30798,32203,4,16
57060,11.3560,-3.3820,4.6330,-0.4030,-0.3580,-0.3250,30792,32197,4,16
57080,12.0370,-3.3760,3.9820,-0.1140,-0.3310,0.0200,30787,32197,3,9
57101,13.6980,-3.3570,3.7900,-0.1170,-0.3300,0.1980,30791,32195,5,25
57121,14.9370,-3.7410,4.2160,-0.1670,-0.2690,0.2440,30785,32190,4,16
57141,14.4080,-3.9680,4.2470,-0.3140,-0.1460,0.2240,30778,32185,4,16
57161,12.9740,-3.2980,3.7420,-0.5010,-0.0650,0.3270,30779,32183,2,4
57181,11.4040,-2.6050,3.3950,-0.5090,-0.0260,0.5650,30780,32185,4,16
57201,10.0930,-2.5150,3.2350,-0.3080,0.0040,0.8470,30781,32189,4,16
57221,9.3980,-2.3880,3.0330,-0.0140,0.0240,1.1470,30777,32188,4,16
57241,9.1480,-2.1070,2.9640,0.3210,0.0450,1.3950,30775,32193,3,9
57261,9.2020,-1.9300,2.7230,0.6720,0.0770,1.6810,30786,32210,4,16
57282,9.4560,-1.8520,2.5310,0.7290,0.0760,1.8120,30797,32218,3,9
57302,9.6860,-1.8850,2.5470,0.6860,0.0750,1.8470,30803,32222,2,4
57322,9.6220,-1.9290,2.5610,0.6120,0.0950,1.8080,30806,32228,5,25
57342,9.4060,-1.8820,2.5180,0.5490,0.1300,1.7400,30805,32230,3,9
57362,9.0430,-1.6740,2.3650,0.5250,0.1700,1.6610,30810,32234,4,16
57382,8.7820,-1.5140,2.1670,0.5700,0.2130,1.5960,30810,32239,4,16
57402,8.6680,-1.4800,2.0330,0.6450,0.2560,1.4920,30807,32239,3,9
57422,8.6420,-1.5100,2.0030,0.7060,0.3030,1.3560,30806,32239,3,9
57442,8.5920,-1.5510,1.8840,0.6810,0.3500,1.1850,30804,32240,3,9
57462,8.5660,-1.5830,1.6240,0.5080,0.3960,0.9020,30807,32246,4,16
57483,8.5570,-1.5970,1.4830,0.3410,0.4140,0.6840,30806,32243,3,9
57503,8.4900,-1.6240,1.4950,0.1590,0.4240,0.4560,30802,32242,3,9
57523,8.4380,-1.5610,1.4980,-0.0070,0.4280,0.2170,30796,32241,3,9
57543,8.5860,-1.4940,1.6210,-0.1160,0.4150,-0.0010,30793,32234,4,16
57563,9.2190,-1.6030,1.7570,-0.1730,0.4040,-0.2090,30785,32231,4,16
57583,10.1110,-1.7230,1.8200,-0.1960,0.3900,-0.4280,30781,32228,4,16
57603,10.4630,-1.5970,1.9200,-0.2250,0.3670,-0.6500,30779,32223,3,9
57623,10.9690,-1.5420,2.0470,-0.2770,0.3050,-0.8000,30769,32216,4,16
57643,12.6410,-1.6340,2.0420,-0.3900,0.2170,-0.9590,30763,32218,4,16
57663,15.2530,-2.3700,1.6640,-0.5840,0.0810,-1.4630,30754,32198,3,9
57684,14.0660,-2.8100,2.2430,-0.6180,-0.0520,-1.8370,30740,32182,5,25
57704,11.3450,-2.2960,3.4620,-0.6410,-0.2730,-1.8990,30736,32190,3,9
57724,9.6880,-1.0740,4.8060,-0.4790,-0.5080,-1.5560,30747,32200,3,9
57744,9.4400,-0.5960,5.1200,0.0860,-0.7210,-0.9890,30750,32202,3,9
57764,9.5110,-0.7150,4.3960,0.8990,-0.7900,-0.5320,30751,32209,5,25
57784,9.3370,-1.0220,3.2510,1.5440,-0.7300,-0.1730,30764,32221,3,9
57804,8.7100,-1.6120,2.2390,1.8430,-0.6090,0.0040,30775,32228,3,9
57824,7.8330,-2.4620,1.5490,1.6420,-0.5510,0.0170,30782,32224,3,9
57844,6.8130,-2.6720,1.5660,1.0590,-0.5390,-0.0460,30779,32221,2,4
57864,5.7880,-2.1640,2.0760,0.0070,-0.4840,-0.1210,30771,32212,2,4
57885,5.4730,-1.7750,2.3250,-0.4520,-0.4140,-0.2010,30765,32196,5,25
57905,5.6010,-1.9410,2.3360,-0.6770,-0.3160,-0.2900,30750,32186,5,25
57925,6.0230,-2.2170,2.3390,-0.7580,-0.2140,-0.3950,30741,32172,4,16
57945,6.5490,-2.3240,2.3590,-0.7840,-0.1080,-0.5040,30732,32166,4,16
57965,7.2590,-2.2740,2.4600,-0.8730,-0.0180,-0.6080,30728,32159,5,25
57985,7.9690,-2.3200,2.5200,-1.0610,0.0300,-0.7020,30722,32152,4,16
58005,8.5560,-2.4160,2.7320,-1.2990,0.0300,-0.7790,30715,32147,4,16
58025,8.8180,-2.4250,3.0890,-1.4270,0.0010,-0.8030,30712,32141,4,16
58045,8.9220,-2.1750,3.6150,-1.3770,-0.0690,-0.7160,30708,32137,4,16
58066,9.3770,-2.0600,3.9260,-1.1510,-0.1370,-0.5980,30706,32132,4,16
58086,10.2350,-2.1630,4.0950,-0.8320,-0.1850,-0.5040,30706,32134,4,16
58106,11.2130,-2.3970,4.1280,-0.4770,-0.1930,-0.4660,30708,32131,6,36
58126,11.8440,-2.5160,3.8980,-0.1910,-0.1580,-0.4780,30704,32128,4,16
58146,13.3400,-2.4360,3.5030,-0.0570,-0.1350,-0.4810,30707,32131,1,1
58166,14.7260,-2.8440,3.5580,-0.0830,-0.1220,-0.5870,30710,32129,2,4
58186,14.7230,-3.5050,4.0110,-0.1400,-0.0710,-0.7810,30712,32120,4,16
58206,13.5480,-3.5430,3.9650,-0.2770,-0.0280,-0.8720,30708,32117,4,16
58226,12.4640,-2.9230,3.7950,-0.2520,0.0040,-0.7230,30714,32127,4,16
58246,10.8210,-2.2760,3.7100,0.2670,0.0690,-0.2450,30717,32130,7,49
58267,10.1080,-2.0650,3.3100,0.7060,0.1200,0.2020,30727,32135,4,16
58287,9.6210,-2.1760,3.0070,1.0900,0.1750,0.5940,30729,32138,3,9
58307,9.3450,-2.3920,2.7020,1.3090,0.2430,0.9160,30728,32146,5,25
58327,9.1550,-2.2180,2.4370,1.2550,0.3020,1.1540,30737,32153,4,16
58347,9.0330,-2.0510,2.3340,1.0190,0.3390,1.3290,30744,32161,2,4
58367,8.8840,-2.0520,2.3940,0.7100,0.3710,1.4370,30749,32165,3,9
58387,8.7010,-1.9720,2.3880,0.4160,0.4180,1.5020,30749,32164,3,9
58407,8.4890,-1.7900,2.2830,0.2320,0.4890,1.5510,30743,32167,3,9
58427,8.3500,-1.5800,2.0290,0.1470,0.5670,1.5720,30745,32163,3,9
58447,8.4460,-1.4570,1.8720,0.1390,0.6880,1.5390,30742,32165,4,16
58468,8.6250,-1.5720,1.8340,0.1180,0.7640,1.4430,30741,32160,4,16
58488,8.7780,-1.7300,1.7010,0.0140,0.8260,1.2920,30739,32162,4,16
58508,8.8900,-1.7860,1.4660,-0.1510,0.8600,1.0980,30736,32161,4,16
58528,8.8540,-1.7600,1.2740,-0.3550,0.8610,0.8860,30737,32165,4,16
58548,8.7360,-1.6700,1.1190,-0.5590,0.8360,0.6850,30729,32164,4,16
58568,8.6870,-1.5470,1.1720,-0.7250,0.7740,0.5010,30726,32164,4,16
58588,8.7230,-1.4920,1.4010,-0.8140,0.6960,0.3320,30728,32158,4,16
58608,9.1020,-1.4770,1.6400,-0.7940,0.6110,0.1680,30721,32157,4,16
58628,9.7000,-1.4900,1.8510,-0.6440,0.5380,-0.0080,30717,32160,4,16
58648,10.3820,-1.2940,1.9060,-0.2510,0.4650,-0.2590,30711,32154,3,9
58669,10.5740,-1.2560,2.0390,-0.0790,0.3840,-0.3760,30709,32157,4,16
58689,12.4760,-1.4820,1.9520,-0.0470,0.2470,-0.5070,30707,32158,3,9
58709,13.8860,-1.9610,2.0300,-0.0540,0.1180,-0.8570,30708,32149,2,4
58729,14.1710,-2.7780,2.2100,-0.1280,-0.0250,-1.2890,30696,32135,3,9
58749,12.6500,-2.6890,2.9680,-0.3330,-0.2380,-1.6030,30684,32128,3,9
58769,10.8620,-1.8290,4.1220,-0.3850,-0.4840,-1.5740,30686,32137,6,36
58789,9.8990,-1.2580,4.9870,-0.1080,-0.7070,-1.2760,30689,32136,3,9
58809,9.3010,-1.0330,5.4260,0.5220,-0.8440,-0.8570,30686,32134,5,25
58829,8.8740,-1.2410,4.2090,1.6060,-0.7910,-0.0800,30692,32145,3,9
58850,8.5410,-1.4530,2.9760,1.9890,-0.6440,0.3220,30709,32157,4,16
58870,7.9850,-1.9690,2.1380,1.8310,-0.5120,0.5610,30718,32157,3,9
58890,7.3560,-2.2960,1.8110,1.2130,-0.4180,0.6530,30722,32158,5,25
58910,6.7170,-2.2950,1.8510,0.3800,-0.3460,0.6730,30721,32155,3,9
58930,6.2640,-2.1030,2.0100,-0.4050,-0.2920,0.6240,30714,32144,4,16
58950,5.8470,-1.8500,2.2840,-0.9490,-0.2350,0.5140,30703,32126,4,16
58970,5.7540,-1.8910,2.5310,-1.2100,-0.1780,0.3820,30687,32116,3,9
58990,5.9720,-1.9080,2.6680,-1.2100,-0.1330,0.2250,30682,32109,3,9
59010,6.3480,-1.9610,3.0040,-1.0220,-0.0950,0.0260,30670,32100,1,1
59030,7.1480,-2.3630,3.3670,-0.7500,-0.0620,-0.2950,30663,32087,6,36
59051,7.6990,-2.4370,3.5230,-0.5750,-0.0790,-0.4960,30660,32082,3,9
59071,8.2460,-2.4110,3.6310,-0.4580,-0.1260,-0.6180,30659,32083,3,9
59091,8.7010,-2.3310,3.9130,-0.3490,-0.2140,-0.6730,30651,32081,5,25
59111,9.1950,-2.3790,4.2840,-0.2000,-0.3180,-0.6610,30648,32080,3,9
59131,9.8390,-2.5430,4.7850,0.0120,-0.4020,-0.6370,30650,32075,4,16
59151,10.6180,-3.0000,5.1920,0.3180,-0.4220,-0.6280,30643,32066,4,16
59171,11.2950,-3.3260,5.0670,0.6410,-0.3780,-0.6450,30638,32060,4,16
59191,12.2850,-3.3540,4.6030,0.8260,-0.2940,-0.6340,30646,32062,6,36
59211,14.0910,-3.4510,4.2510,0.7940,-0.2460,-0.6570,30655,32070,3,9
59231,14.3710,-4.1890,4.7850,0.5810,-0.0980,-0.8130,30669,32069,6,36
59252,13.0150,-4.0260,4.5250,0.2360,0.0240,-0.7970,30670,32077,3,9
59272,11.5030,-3.2470,3.9420,0.0520,0.1190,-0.5860,30682,32074,4,16
59292,10.4100,-2.6960,3.4960,0.0910,0.1840,-0.2530,30688,32079,5,25
59312,9.8590,-2.6540,3.2630,0.3050,0.2510,0.1430,30686,32078,5,25
59332,9.5970,-2.8550,3.0720,0.5300,0.3350,0.4280,30681,32075,3,9
59352,9.1820,-2.6920,2.8650,0.6810,0.4030,0.6400,30683,32082,3,9
59372,8.8490,-2.3890,2.6120,0.6660,0.4300,0.8350,30685,32087,4,16
59392,8.6950,-2.2480,2.4660,0.5230,0.4240,1.0080,30695,32089,4,16
59412,8.6130,-2.2180,2.4370,0.3770,0.4130,1.1150,30691,32095,3,9
59432,8.3370,-1.9500,2.4300,0.2420,0.4310,1.2290,30693,32100,3,9
59453,8.0880,-1.7230,2.2630,0.2270,0.4600,1.2900,30692,32101,3,9
59473,7.9740,-1.5250,2.0970,0.2630,0.4920,1.3350,30691,32104,3,9
59493,7.9920,-1.5000,1.9260,0.3230,0.5230,1.3300,30690,32107,3,9
59513,8.1620,-1.5790,1.8580,0.3500,0.5610,1.2510,30692,32106,3,9
59533,8.3400,-1.7210,1.7500,0.3090,0.5950,1.1070,30691,32103,4,16
59553,8.5460,-1.8240,1.5950,0.1600,0.6270,0.9100,30686,32106,3,9
59573,8.6530,-1.8360,1.4330,-0.0480,0.6350,0.7000,30686,32107,4,16
59593,8.5690,-1.7380,1.4080,-0.2650,0.6230,0.4890,30688,32104,4,16
59613,8.3250,-1.5900,1.6350,-0.5350,0.5690,0.2010,30678,32100,3,9
59635,8.5840,-1.5320,1.8360,-0.6080,0.5240,0.0420,30677,32099,3,9
59655,9.2450,-1.5160,1.9640,-0.5790,0.4810,-0.1140,30672,32099,3,9
59675,10.0540,-1.5540,2.0270,-0.4660,0.4380,-0.2570,30671,32097,5,25
59695,10.2330,-1.5320,2.1010,-0.3590,0.3880,-0.3860,30668,32097,3,9
59715,10.5000,-1.4040,2.3360,-0.3090,0.2920,-0.4420,30668,32094,4,16
59735,11.9220,-1.5360,2.2910,-0.4110,0.1540,-0.5070,30661,32087,3,9
59755,13.0320,-1.9110,2.3510,-0.5130,0.0270,-0.6850,30661,32082,2,4
59775,13.4300,-2.2400,2.5830,-0.6080,-0.1350,-0.9170,30654,32073,5,25
59795,11.9730,-1.7910,3.5710,-0.7130,-0.4170,-1.0100,30644,32070,4,16
59816,11.4110,-1.3050,4.5250,-0.5480,-0.6300,-0.8310,30645,32070,4,16
59836,10.9930,-1.0850,5.1010,-0.1220,-0.7510,-0.5660,30644,32071,4,16
59856,10.2080,-1.0970,4.6670,0.3820,-0.7540,-0.2640,30647,32076,1,1
59876,9.3190,-1.1430,3.7170,0.6820,-0.6890,-0.0150,30653,32084,3,9
59896,8.2250,-1.5840,2.7690,0.7250,-0.5980,0.1470,30660,32088,4,16
59916,7.1950,-2.0970,2.3670,0.4760,-0.5470,0.1800,30660,32083,4,16
59936,6.2350,-2.2240,2.4330,0.0390,-0.5070,0.1600,30658,32082,3,9
59956,5.4790,-1.9540,2.4740,-0.3680,-0.4460,0.1240,30654,32072,3,9
59976,5.1330,-1.7500,2.5220,-0.6460,-0.3800,0.0590,30648,32071,4,16
59996,5.2340,-1.8850,2.5740,-0.7270,-0.2800,-0.1170,30646,32061,4,16
60017,5.6370,-2.0990,2.5930,-0.6660,-0.2200,-0.2970,30641,32062,3,9
60037,6.3240,-2.3180,2.6560,-0.6190,-0.1790,-0.5140,30635,32050,2,4
60057,7.2070,-2.4500,2.8980,-0.5980,-0.1520,-0.7420,30630,32044,4,16
60077,8.2580,-2.5210,3.1000,-0.5920,-0.1400,-0.9470,30625,32037,4,16
60097,9.2020,-2.6460,3.3650,-0.5580,-0.1500,-1.1190,30624,32031,4,16
60117,9.6800,-2.5990,3.7460,-0.5100,-0.1790,-1.2060,30616,32030,3,9
60137,9.7030,-2.4000,4.1160,-0.4530,-0.2380,-1.1810,30618,32034,4,16
60157,9.6030,-2.2730,4.4160,-0.3810,-0.3190,-1.0460,30627,32034,3,9
60177,9.6610,-2.3880,4.5450,-0.2660,-0.4020,-0.8760,30625,32030,4,16
60197,10.5460,-2.9110,4.4950,0.0870,-0.4190,-0.7190,30619,32024,5,25
60218,11.6660,-3.0730,4.0860,0.3520,-0.3670,-0.7080,30618,32022,4,16
60238,14.0910,-3.0500,3.5750,0.5540,-0.3220,-0.7740,30625,32022,3,9
60258,15.5460,-3.3060,4.2880,0.7620,-0.2550,-0.9350,30632,32017,3,9
60278,15.4740,-4.0260,5.0210,0.9330,-0.1350,-1.0620,30641,32010,5,25
60298,14.4940,-3.9970,5.0000,0.8740,0.0220,-1.0000,30650,32008,4,16
60318,12.6890,-3.4940,4.6720,0.7240,0.1230,-0.6870,30650,32013,4,16
60338,10.8680,-2.9340,4.1840,0.6580,0.1740,-0.1840,30662,32024,6,36
60358,9.7920,-2.3120,3.6380,0.6840,0.2100,0.4460,30664,32023,4,16
60378,8.7820,-2.3200,3.3020,0.7820,0.3020,1.1140,30665,32030,6,36
60399,8.4720,-2.1810,2.9770,0.7700,0.3790,1.4810,30661,32030,5,25
60419,8.5430,-1.8970,2.7930,0.6710,0.4370,1.7310,30663,32032,2,4
60439,8.8050,-1.8110,2.8200,0.5140,0.4780,1.8640,30660,32035,3,9
60459,8.9560,-1.7090,2.8770,0.3580,0.5350,1.9100,30653,32035,3,9
60479,8.7960,-1.6390,2.7580,0.2400,0.5980,1.8990,30652,32037,3,9
60499,8.5350,-1.4220,2.5030,0.1650,0.6550,1.8660,30649,32036,4,16
60519,8.4500,-1.2760,2.2700,0.1550,0.7030,1.8140,30649,32035,5,25
60539,8.4920,-1.2550,2.1820,0.1860,0.7450,1.7120,30649,32038,4,16
60559,8.5820,-1.3900,2.0810,0.2070,0.7900,1.5350,30647,32041,4,16
60579,8.8500,-1.5330,1.7850,0.1230,0.8410,1.2230,30642,32044,4,16
60600,8.9580,-1.4090,1.6220,-0.0300,0.8440,0.9860,30648,32045,5,25
60620,8.9400,-1.3040,1.5590,-0.2240,0.8110,0.7620,30648,32044,4,16
60640,8.6790,-1.3600,1.5960,-0.4200,0.7510,0.5350,30643,32045,4,16
60660,8.3790,-1.3790,1.7200,-0.5830,0.6730,0.3310,30642,32050,4,16
60680,8.4980,-1.3260,1.9370,-0.6560,0.5820,0.1460,30635,32046,3,9
60700,9.1630,-1.3360,2.1060,-0.5870,0.5180,-0.0350,30630,32045,4,16
60720,9.9000,-1.2880,2.0850,-0.4500,0.4690,-0.2270,30629,32041,4,16
60740,10.4470,-1.0970,2.1680,-0.2950,0.3710,-0.3860,30625,32035,4,16
60760,11.4560,-1.0320,2.4880,-0.1230,0.2330,-0.5000,30623,32036,4,16
60780,12.6990,-1.4500,2.7630,0.0080,0.0420,-0.7740,30619,32030,3,9
60801,13.0580,-1.7600,2.8070,-0.0380,-0.1190,-1.0290,30614,32023,4,16
60821,12.3340,-1.7480,3.1680,-0.0980,-0.2830,-1.2090,30610,32016,4,16
60841,11.3050,-1.4740,3.6740,-0.1030,-0.4730,-1.2220,30602,32015,2,4
60861,10.6210,-1.0300,4.3140,0.0480,-0.6440,-1.0650,30600,32018,4,16
60881,10.3240,-0.8680,4.4460,0.3290,-0.7160,-0.8330,30603,32018,6,36
60901,9.9600,-0.9950,4.1250,0.5870,-0.7100,-0.6380,30601,32019,2,4
60921,9.1610,-1.2920,3.5900,0.6980,-0.6390,-0.5110,30608,32020,4,16
60941,7.8970,-1.6480,3.1040,0.5670,-0.5690,-0.4670,30605,32015,3,9
60961,6.6680,-1.9010,2.8230,0.1980,-0.5180,-0.4900,30603,32010,4,16
60981,5.3910,-1.8790,2.5350,-0.4310,-0.4350,-0.5430,30596,32004,4,16
61002,5.1100,-1.8280,2.4330,-0.7180,-0.3730,-0.5920,30596,32003,3,9
61022,5.1490,-1.8540,2.5510,-0.8640,-0.3160,-0.6660,30602,32001,3,9
61042,5.4540,-2.0340,2.8230,-0.8900,-0.2680,-0.7640,30600,31990,4,16
61062,6.0250,-2.2370,3.1180,-0.8720,-0.2320,-0.8980,30593,31982,4,16
61082,6.7180,-2.4340,3.3870,-0.8520,-0.1980,-1.0480,30584,31972,4,16
61102,7.5110,-2.5550,3.4600,-0.8440,-0.1760,-1.1970,30580,31968,5,25
61122,8.1760,-2.6220,3.5710,-0.8470,-0.1740,-1.2920,30584,31972,3,9
61142,8.6470,-2.6140,3.7330,-0.8370,-0.1980,-1.2990,30578,31963,4,16
61162,9.2990,-2.3990,4.3550,-0.7280,-0.2740,-1.1500,30572,31959,4,16
61184,10.1480,-2.3970,4.8330,-0.5660,-0.3260,-0.9760,30580,31963,3,9
61204,11.1380,-2.6430,5.0980,-0.3630,-0.3440,-0.7990,30579,31962,6,36
61224,12.2510,-2.8080,4.9280,-0.1720,-0.3130,-0.6430,30578,31962,4,16
61244,14.6070,-2.8000,4.5590,-0.0620,-0.2820,-0.5010,30592,31966,2,4
61264,16.5440,-2.9890,4.8260,-0.0510,-0.2320,-0.4780,30602,31965,2,4
61284,16.5450,-3.3580,5.2190,-0.1660,-0.1170,-0.4830,30609,31961,4,16
61304,14.3660,-3.2110,4.8430,-0.4760,0.0110,-0.3430,30611,31962,4,16
61324,11.6710,-2.2730,4.0030,-0.6690,0.0610,0.0570,30610,31969,4,16
61344,9.7400,-1.6840,3.2700,-0.5470,0.0620,0.7820,30608,31967,4,16
61366,9.5830,-1.8210,3.2900,-0.3210,0.0920,1.1940,30602,31969,3,9
61386,9.4220,-1.8200,3.2780,-0.0150,0.1350,1.4540,30606,31973,2,4
61406,9.1330,-1.7230,3.2090,0.2320,0.1580,1.6110,30604,31979,4,16
61426,8.8500,-1.6170,3.1500,0.3770,0.1400,1.6930,30610,31987,5,25
61446,8.5650,-1.5570,3.1880,0.4910,0.1020,1.7100,30606,31987,3,9
61466,8.3550,-1.6380,3.2090,0.6040,0.0790,1.6620,30605,31994,5,25
61486,8.1700,-1.6160,3.1790,0.7600,0.0900,1.5850,30605,31990,4,16
61506,8.1310,-1.4770,3.0480,0.9450,0.1390,1.4870,30601,31997,3,9
61526,7.9450,-1.3010,2.5870,1.2150,0.2750,1.3260,30608,32004,4,16
61547,7.8480,-1.3110,2.3670,1.2660,0.3700,1.2070,30615,32013,4,16
61567,7.8310,-1.3950,2.1480,1.1580,0.4520,1.0650,30620,32014,3,9
61587,7.9220,-1.4210,2.0150,0.8910,0.5200,0.9090,30628,32020,3,9
61607,8.1000,-1.4260,1.8630,0.5410,0.5720,0.7360,30628,32021,3,9
61627,8.2620,-1.4390,1.7390,0.1720,0.6200,0.5420,30623,32020,3,9
61647,8.3130,-1.4110,1.6700,-0.1670,0.6620,0.3320,30621,32023,3,9
61667,8.4460,-1.3400,1.7790,-0.4290,0.6890,0.1360,30618,32021,4,16
61687,8.7800,-1.3650,1.9260,-0.6060,0.6990,-0.0530,30615,32017,3,9
61707,9.4620,-1.3810,2.0200,-0.7060,0.6880,-0.2410,30603,32014,4,16
61727,10.7020,-1.3810,1.9820,-0.7590,0.6340,-0.5220,30596,32002,5,25
61748,11.0030,-1.3790,1.9510,-0.7660,0.5500,-0.6950,30591,31996,3,9
61768,11.1250,-1.4130,2.2150,-0.7850,0.4130,-0.8170,30580,31995,5,25
61788,11.8520,-1.4740,2.4670,-0.8040,0.2480,-0.9250,30577,31988,4,16
61808,13.0440,-1.6360,2.5040,-0.7810,0.0920,-1.0900,30572,31980,5,25
61828,13.6670,-2.0490,2.6220,-0.6810,-0.0490,-1.3330,30568,31968,4,16
61848,12.4210,-2.0730,3.1960,-0.5090,-0.1640,-1.4920,30556,31963,3,9
61868,10.8110,-1.5740,3.8140,-0.3450,-0.3300,-1.3640,30561,31972,3,9
61888,10.3920,-0.7630,4.1340,-0.1420,-0.4780,-0.9980,30573,31986,4,16
61908,10.2850,-0.8500,3.7890,0.2660,-0.6150,-0.4680,30585,31985,3,9
61929,9.8560,-1.4510,3.4790,0.4120,-0.5980,-0.2160,30587,31989,4,16
61949,8.8930,-1.7680,3.3830,0.3560,-0.5420,-0.0730,30586,31988,3,9
61969,7.5980,-1.8400,3.2590,0.0840,-0.4790,-0.0190,30586,31984,4,16
61989,6.4100,-1.7720,3.1480,-0.3090,-0.4300,-0.0050,30578,31978,3,9
62009,5.4420,-1.6960,2.9760,-0.5880,-0.3840,0.0070,30574,31973,4,16
62029,4.9340,-1.7730,2.9420,-0.7020,-0.3370,-0.0130,30571,31967,5,25
62049,4.8590,-1.9080,3.0330,-0.6720,-0.2930,-0.0960,30565,31959,4,16
62069,5.0700,-2.0950,3.2690,-0.5530,-0.2470,-0.2350,30566,31951,4,16
62089,5.5840,-2.1950,3.5220,-0.4370,-0.2010,-0.3980,30562,31950,4,16
